"sid"	"trial"	"block"	"mode"	"setup"	"center_x"	"center_y"	"offset"	"fix_delay"	"cue_size"	"cue_side"	"key.target"	"key.response"	"key.response.correct"	"trial.start"	"trial.start.cropped"	"hide.fix"	"show.cue"	"show.arrow"	"show.mask"	"trial.end"	"first.saccade.response.target"	"first.saccade.direction"	"saccade.response.target.correct"	"first.saccade.latency"	"first.saccade.duration"	"first.saccade.peak.velocity"	"first.saccade.amplitude"	"first.saccade.amplitude.ratio"	"average.quality"	"clean"
"0304b"	1	1	"anti"	2	640	512	426	2847	35	"right"	"<"	"^"	FALSE	1330368449.65674	1330368451.18386	1330368453.77312	1330368454.00442	1330368454.40215	1330368454.56808	1330368457.61672	"left"	"right"	FALSE	0.276566982269287	0.0817880630493164	184.266729147775	10.7897135768795	0.993282080615888	0.720588235294118	TRUE
"0304b"	2	1	"anti"	2	640	512	426	2425	35	"right"	"^"	"^"	TRUE	1330368457.62491	1330368458.14636	1330368460.32167	1330368460.55398	1330368460.94962	1330368461.1146	1330368462.14967	"left"	"left"	TRUE	0.515706062316895	0.041949987411499	244.067729807363	5.34400105454818	0.491959350769929	1	TRUE
"0304b"	3	1	"pro"	2	640	512	426	2437	35	"right"	"<"	"<"	TRUE	1330368462.15659	1330368462.54321	1330368464.74881	1330368464.98008	1330368465.37786	1330368465.54393	1330368466.2127	"right"	"right"	TRUE	0.297760009765625	0.0832910537719727	172.376204121475	10.352510224943	0.95303390794945	1	TRUE
"0304b"	4	1	"anti"	2	640	512	426	3361	35	"left"	"^"	"^"	TRUE	1330368466.2166	1330368467.21279	1330368470.33669	1330368470.56913	1330368470.96759	1330368471.13254	1330368471.96832	"right"	"left"	FALSE	0.252955913543701	0.0866560935974121	186.789231162852	11.0793148678716	1.01994226680305	1	TRUE
"0304b"	5	1	"pro"	2	640	512	426	2017	35	"left"	"^"	"^"	TRUE	1330368471.97741	1330368480.22379	1330368481.97022	1330368482.20504	1330368482.60256	1330368482.7679	1330368483.56699	"left"	"left"	TRUE	0.287422895431519	0.0917680263519287	196.18634022305	11.7167435856947	1.07862283497312	1	TRUE
"0304b"	6	1	"anti"	2	640	512	426	1563	35	"right"	"<"	"<"	TRUE	1330368483.5717	1330368487.91357	1330368489.21298	1330368489.44343	1330368489.84098	1330368490.0059	1330368491.03631	"left"	"right"	FALSE	0.296171188354492	0.090242862701416	177.174130347953	10.4199225459538	0.959239767817333	1	TRUE
"0304b"	7	1	"pro"	2	640	512	426	1502	35	"left"	"^"	"^"	TRUE	1330368491.04158	1330368493.54725	1330368494.76361	1330368494.99451	1330368495.39176	1330368495.55736	1330368496.09368	"left"	"left"	TRUE	0.296732902526855	0.0834619998931885	174.748788957414	10.1680779921088	0.936055400535241	1	TRUE
"0304b"	8	1	"anti"	2	640	512	426	3159	35	"left"	"^"	"^"	TRUE	1330368496.09749	1330368511.00474	1330368513.9057	1330368514.13639	1330368514.53317	1330368514.69884	1330368515.43278	"right"	"left"	FALSE	0.239344835281372	0.089184045791626	167.92496684762	10.0467905466352	0.92488989133667	1	TRUE
"0304b"	9	1	"anti"	2	640	512	426	2346	35	"left"	"^"	"^"	TRUE	1330368515.43622	1330368518.5819	1330368520.64156	1330368520.87215	1330368521.26921	1330368521.43466	1330368522.46745	"right"	"right"	TRUE	0.00716996192932129	0.0185329914093018	34.1251093330817	0.924984810233045	0.0851524769679839	1	TRUE
"0304b"	10	1	"pro"	2	640	512	426	2754	35	"right"	">"	">"	TRUE	1330368522.47557	1330368525.11058	1330368527.55076	1330368527.78267	1330368528.17893	1330368528.34332	1330368528.88363	"right"	"right"	TRUE	0.304804086685181	0.0896649360656738	195.267800983334	11.5340783043941	1.06180699001359	1	TRUE
"0304b"	11	1	"anti"	2	640	512	426	2483	35	"left"	"<"	"<"	TRUE	1330368528.89095	1330368529.92902	1330368532.17926	1330368532.41129	1330368532.80905	1330368532.9742	1330368533.4775	"right"	"left"	FALSE	0.307087898254395	0.0828931331634521	169.265716657098	10.0179823666246	0.922237860884168	1	TRUE
"0304b"	12	1	"anti"	2	640	512	426	1952	35	"left"	"<"	"<"	TRUE	1330368533.48138	1330368539.71562	1330368541.43109	1330368541.66251	1330368542.05825	1330368542.22396	1330368542.9572	"right"	"right"	TRUE	0.305300951004028	0.0978438854217529	213.89939277495	5.58676664676838	0.514307924791314	1	TRUE
"0304b"	13	1	"anti"	2	640	512	426	2710	35	"left"	"^"	"^"	TRUE	1330368542.96105	1330368546.88924	1330368549.35847	1330368549.58939	1330368549.98665	1330368550.1516	1330368550.65566	"right"	"left"	FALSE	0.277814149856567	0.0819838047027588	179.308108651616	10.6021687241167	0.97601703087813	1	TRUE
"0304b"	14	1	"anti"	2	640	512	426	2084	35	"left"	">"	">"	TRUE	1330368550.66389	1330368552.41047	1330368554.25589	1330368554.48678	1330368554.88511	1330368555.05102	1330368555.5532	"right"	NA	NA	NA	NA	NA	NA	NA	1	TRUE
"0304b"	15	1	"pro"	2	640	512	426	3229	35	"right"	">"	">"	TRUE	1330368555.56022	1330368556.71312	1330368559.64237	1330368559.87409	1330368560.27282	1330368560.43846	1330368560.87522	"right"	"right"	TRUE	0.271573066711426	0.0798659324645996	193.19419886599	11.5051749419752	1.05914619723576	1	TRUE
"0304b"	16	1	"anti"	2	640	512	426	1874	35	"right"	"^"	"^"	TRUE	1330368560.88072	1330368563.49518	1330368565.13392	1330368565.3653	1330368565.76169	1330368565.92756	1330368566.7591	"left"	"right"	FALSE	0.295644044876099	0.0914590358734131	174.13317554251	10.4213439103161	0.959370616124016	1	TRUE
"0304b"	17	1	"pro"	2	640	512	426	3113	35	"right"	"<"	"<"	TRUE	1330368566.76564	1330368570.95936	1330368573.79911	1330368574.06302	1330368574.46061	1330368574.62518	1330368575.0324	"right"	"right"	TRUE	0.263396978378296	0.08319091796875	183.225139668928	10.8955885823393	1.00302874765752	1	TRUE
"0304b"	18	1	"pro"	2	640	512	426	3437	35	"left"	"^"	"^"	TRUE	1330368575.04022	1330368575.95693	1330368579.15655	1330368579.38815	1330368579.78423	1330368579.94926	1330368580.35434	"left"	"left"	TRUE	0.276455879211426	0.0943892002105713	179.125253922424	10.5977474709779	0.975610018079748	1	TRUE
"0304b"	19	1	"pro"	2	640	512	426	2560	35	"right"	"<"	"<"	TRUE	1330368580.3619	1330368584.03731	1330368586.36362	1330368586.59581	1330368586.9917	1330368587.15592	1330368587.49449	"right"	"right"	TRUE	0.2376868724823	0.085407018661499	169.683699709235	10.2447589142137	0.94311451154029	1	TRUE
"0304b"	20	1	"pro"	2	640	512	426	2862	35	"right"	">"	">"	TRUE	1330368587.4998	1330368591.44983	1330368594.03486	1330368594.26616	1330368594.66318	1330368594.82913	1330368595.16835	"right"	"right"	TRUE	0.272736072540283	0.0824930667877197	179.901869798049	10.6382159164033	0.979335472086012	1	TRUE
"0304b"	21	1	"pro"	2	640	512	426	1766	35	"left"	"^"	"^"	TRUE	1330368595.17628	1330368596.96929	1330368598.49808	1330368598.73067	1330368599.12724	1330368599.2925	1330368599.59797	"left"	"left"	TRUE	0.00802707672119141	0.00719404220581055	31.2625168570063	0.142308836792934	0.0131007015610319	1	TRUE
"0304b"	22	1	"anti"	2	640	512	426	2449	35	"right"	"<"	"<"	TRUE	1330368599.60225	1330368600.81871	1330368602.96549	1330368603.16459	1330368603.56162	1330368603.72621	1330368604.26234	"left"	"right"	FALSE	0.321419954299927	0.0906600952148438	173.670329504756	10.3401390191473	0.951895036472935	1	TRUE
"0304b"	23	1	"pro"	2	640	512	426	3104	35	"right"	"^"	"^"	TRUE	1330368604.26572	1330368605.18635	1330368608.05535	1330368608.28636	1330368608.68331	1330368608.8491	1330368609.18734	"right"	"right"	TRUE	0.253041982650757	0.093040943145752	182.692852358816	10.8117548147438	0.99531115826	1	TRUE
"0304b"	24	1	"anti"	2	640	512	426	2842	35	"right"	"^"	"^"	TRUE	1330368609.19687	1330368616.02889	1330368618.63356	1330368618.86461	1330368619.25914	1330368619.4251	1330368620.22678	"left"	"right"	FALSE	0.237385988235474	0.0876331329345703	169.140188187944	9.96142487480976	0.917031277526416	1	TRUE
"0304b"	25	1	"pro"	2	640	512	426	2522	35	"right"	"<"	"<"	TRUE	1330368620.23557	1330368624.09054	1330368626.36485	1330368626.59519	1330368626.99304	1330368627.15636	1330368627.63529	"right"	"right"	TRUE	0.231026172637939	0.0906269550323486	166.339754471026	10.0598426939939	0.926091449097453	1	TRUE
"0304b"	26	1	"anti"	2	640	512	426	1578	35	"right"	"^"	"^"	TRUE	1330368627.64016	1330368633.17917	1330368634.49358	1330368634.72501	1330368635.12091	1330368635.28647	1330368636.02289	"left"	"right"	FALSE	0.304271936416626	0.0801050662994385	175.039816103294	10.3780637049563	0.955386316436824	1	TRUE
"0304b"	27	1	"anti"	2	640	512	426	3169	35	"right"	">"	">"	TRUE	1330368636.0301	1330368637.16775	1330368640.04694	1330368640.27767	1330368640.67458	1330368640.83923	1330368641.31049	"left"	NA	NA	NA	NA	NA	NA	NA	0.617647058823529	TRUE
"0304b"	28	1	"pro"	2	640	512	426	1501	35	"left"	"<"	"<"	TRUE	1330368641.31743	1330368642.67891	1330368643.91035	1330368644.14199	1330368644.53742	1330368644.70218	1330368645.13892	"left"	"left"	TRUE	0.304627895355225	0.0981881618499756	185.700654511617	10.9807799492579	1.0108713152642	1	TRUE
"0304b"	29	1	"pro"	2	640	512	426	2628	35	"right"	"<"	"<"	TRUE	1330368645.14397	1330368648.19837	1330368650.58956	1330368650.82182	1330368651.218	1330368651.38252	1330368651.72169	"right"	"right"	TRUE	0.237520933151245	0.0772049427032471	177.807477826438	10.6284343956239	0.978435002463522	1	TRUE
"0304b"	30	1	"pro"	2	640	512	426	2918	35	"left"	"<"	"<"	TRUE	1330368651.72694	1330368657.16283	1330368659.84687	1330368660.07717	1330368660.47377	1330368660.639	1330368661.04242	"left"	"left"	TRUE	0.305979013442993	0.0828769207000732	181.782936633643	10.7101654238002	0.9859590173634	1	TRUE
"0304b"	31	1	"anti"	2	640	512	426	2193	35	"left"	"<"	"<"	TRUE	1330368661.04734	1330368665.0067	1330368666.96306	1330368667.19266	1330368667.58905	1330368667.75449	1330368668.36029	"right"	"right"	TRUE	0.228737831115723	0.125715970993042	248.791254512296	5.75090148421877	0.529417889637242	1	TRUE
"0304b"	32	1	"pro"	2	640	512	426	2528	35	"left"	">"	">"	TRUE	1330368668.36793	1330368671.35548	1330368673.60612	1330368673.83802	1330368674.23452	1330368674.40002	1330368674.77113	"left"	"left"	TRUE	0.270826816558838	0.0781199932098389	167.421786054009	9.96617473675584	0.917468541474419	1	TRUE
"0304b"	33	1	"pro"	2	640	512	426	2042	35	"right"	"<"	"<"	TRUE	1330368674.77597	1330368686.34665	1330368688.12359	1330368688.38769	1330368688.81624	1330368688.9813	1330368689.25313	"right"	"right"	TRUE	0.315983057022095	0.091796875	196.75286122304	11.644595936533	1.07198104911289	1	TRUE
"0304b"	34	1	"anti"	2	640	512	426	3033	35	"right"	"<"	"<"	TRUE	1330368689.26017	1330368690.09794	1330368692.88513	1330368693.1162	1330368693.51254	1330368693.67833	1330368694.21538	"left"	"right"	FALSE	0.26054310798645	0.0905189514160156	182.401514961559	10.7115078456718	0.986082598363038	1	TRUE
"0304b"	35	1	"pro"	2	640	512	426	2296	35	"left"	"^"	"^"	TRUE	1330368694.22347	1330368695.26978	1330368697.21316	1330368697.44449	1330368697.84148	1330368698.00714	1330368698.48133	"left"	"left"	TRUE	0.282236099243164	0.0899748802185059	178.764181445099	10.5294664017795	0.969324182779597	1	TRUE
"0304b"	36	1	"anti"	2	640	512	426	2494	35	"left"	"<"	"<"	TRUE	1330368698.49017	1330368701.87628	1330368704.12318	1330368704.35526	1330368704.75117	1330368704.91702	1330368705.354	"right"	"left"	FALSE	0.251407146453857	0.0866098403930664	163.024655567901	9.60749179384409	0.884448819747955	1	TRUE
"0304b"	37	1	"pro"	2	640	512	426	2541	35	"left"	"<"	"<"	TRUE	1330368705.36192	1330368708.35839	1330368710.62916	1330368710.89331	1330368711.29006	1330368711.45513	1330368711.86132	"left"	"left"	TRUE	0.27153205871582	0.0824229717254639	191.577614733154	11.2884450584575	1.03919442482788	1	TRUE
"0304b"	38	1	"anti"	2	640	512	426	1629	35	"right"	"^"	"^"	TRUE	1330368711.87005	1330368714.88192	1330368716.25234	1330368716.4841	1330368716.88066	1330368717.04627	1330368717.8795	"left"	"right"	FALSE	0.316114902496338	0.0909249782562256	167.704950086741	10.0003867426247	0.920618038644048	1	TRUE
"0304b"	39	1	"pro"	2	640	512	426	1971	35	"left"	">"	">"	TRUE	1330368717.88717	1330368719.0082	1330368720.64937	1330368720.91331	1330368721.31003	1330368721.47488	1330368721.81454	"left"	"left"	TRUE	0.271733999252319	0.0883119106292725	175.644944136608	10.5129202482054	0.967800972943567	1	TRUE
"0304b"	40	1	"anti"	2	640	512	426	2349	35	"left"	">"	">"	TRUE	1330368721.82139	1330368723.13572	1330368725.24628	1330368725.47819	1330368725.87504	1330368726.03995	1330368726.65519	"right"	"left"	FALSE	0.238359928131104	0.0720181465148926	185.94451155413	11.1622298566862	1.02757527503975	1	TRUE
"0304b"	41	2	"pro"	2	640	512	426	2338	35	"left"	">"	">"	TRUE	1330368746.65158	1330368747.11969	1330368749.2241	1330368749.45559	1330368749.85195	1330368750.01749	1330368750.35741	"left"	"right"	FALSE	0.296531915664673	0.0994460582733154	199.408119204451	5.35390834576453	0.492871398597939	1	TRUE
"0304b"	42	2	"pro"	2	640	512	426	1919	35	"left"	"^"	"^"	TRUE	1330368750.36676	1330368751.94323	1330368753.61955	1330368753.85104	1330368754.24694	1330368754.41168	1330368754.84938	"left"	"left"	TRUE	0.215806007385254	0.0916199684143066	186.454227739428	11.0681643378337	1.01891576859277	1	TRUE
"0304b"	43	2	"pro"	2	640	512	426	3275	35	"right"	"^"	"^"	TRUE	1330368754.85586	1330368756.00522	1330368759.04047	1330368759.27131	1330368759.66774	1330368759.8322	1330368760.20507	"right"	"right"	TRUE	0.274384021759033	0.0836291313171387	182.647360667617	10.8444930271318	0.998324980590384	1	TRUE
"0304b"	44	2	"pro"	2	640	512	426	1684	35	"left"	"<"	"<"	TRUE	1330368760.20957	1330368760.70122	1330368762.14826	1330368762.37961	1330368762.77617	1330368762.94115	1330368763.31475	"left"	"left"	TRUE	0.271636009216309	0.089601993560791	176.930887731512	10.2994470401197	0.948149004355868	1	TRUE
"0304b"	45	2	"pro"	2	640	512	426	3441	35	"right"	"^"	"^"	TRUE	1330368763.32173	1330368768.60111	1330368771.76515	1330368771.99732	1330368772.39413	1330368772.56042	1330368772.9005	"right"	"right"	TRUE	0.255631923675537	0.0926392078399658	198.464008222866	11.8125682996835	1.08744428983446	1	TRUE
"0304b"	46	2	"anti"	2	640	512	426	2987	35	"right"	"<"	"<"	TRUE	1330368772.90932	1330368779.15211	1330368781.84743	1330368782.07952	1330368782.47666	1330368782.64176	1330368783.04524	"left"	"right"	FALSE	0.350021123886108	0.0916109085083008	145.680767957126	2.8768857020631	0.264841044711567	1	TRUE
"0304b"	47	2	"anti"	2	640	512	426	2364	35	"left"	"^"	"^"	TRUE	1330368783.05286	1330368788.12298	1330368790.24399	1330368790.47469	1330368790.87223	1330368791.03812	1330368791.4776	"right"	"left"	FALSE	0.247108936309814	0.0915379524230957	179.868110621433	10.7081843732527	0.985776645329557	1	TRUE
"0304b"	48	2	"anti"	2	640	512	426	2638	35	"left"	"<"	"<"	TRUE	1330368791.48596	1330368797.41955	1330368799.77312	1330368800.00514	1330368800.40219	1330368800.56757	1330368801.07197	"right"	"left"	FALSE	0.253091096878052	0.0861749649047852	180.934554073041	10.6760341669016	0.982816953802145	1	TRUE
"0304b"	49	2	"pro"	2	640	512	426	3010	35	"left"	"^"	"^"	TRUE	1330368801.08079	1330368804.8395	1330368807.57064	1330368807.80195	1330368808.19758	1330368808.36296	1330368808.83393	"left"	"left"	TRUE	0.241662979125977	0.0835831165313721	169.281929403035	9.86353289797168	0.908019514078156	1	TRUE
"0304b"	50	2	"pro"	2	640	512	426	3304	35	"left"	"^"	"^"	TRUE	1330368808.84073	1330368815.24674	1330368818.31425	1330368818.54662	1330368818.94256	1330368819.10733	1330368819.41536	"left"	"left"	TRUE	0.238312005996704	0.0819201469421387	175.220502671994	10.5000237329703	0.966613742402721	1	TRUE
"0304b"	51	2	"pro"	2	640	512	426	2619	35	"right"	"<"	"<"	TRUE	1330368819.42422	1330368846.78916	1330368849.17001	1330368849.40178	1330368849.79854	1330368849.9635	1330368850.469	"right"	"right"	TRUE	0.242439031600952	0.0953869819641113	179.768509759373	10.7689940228798	0.991374674866925	1	TRUE
"0304b"	52	2	"anti"	2	640	512	426	1646	35	"left"	"<"	"<"	TRUE	1330368850.47453	1330368852.88961	1330368854.29513	1330368854.52764	1330368854.92467	1330368855.08909	1330368855.52997	"right"	"left"	FALSE	0.229232788085938	0.0925590991973877	169.229203146203	9.92699682357979	0.913861891600313	1	TRUE
"0304b"	53	2	"anti"	2	640	512	426	2070	35	"left"	">"	">"	TRUE	1330368855.53744	1330368857.90352	1330368859.71166	1330368859.94255	1330368860.33858	1330368860.5046	1330368860.94213	"right"	"left"	FALSE	0.251219034194946	0.0913379192352295	189.576542462914	11.1192152073481	1.02361542197349	1	TRUE
"0304b"	54	2	"anti"	2	640	512	426	2469	35	"left"	"<"	"<"	TRUE	1330368860.94909	1330368864.51291	1330368866.71872	1330368866.94935	1330368867.34521	1330368867.51025	1330368868.04649	"right"	"left"	FALSE	0.124933958053589	0.0800900459289551	135.132891410384	7.98078250726909	0.734696820011025	1	TRUE
"0304b"	55	2	"anti"	2	640	512	426	1603	35	"right"	">"	">"	TRUE	1330368868.05415	1330368871.43359	1330368872.80069	1330368873.03038	1330368873.42959	1330368873.59501	1330368874.16322	"left"	"right"	FALSE	0.278596878051758	0.0829801559448242	179.587982583675	10.557966821314	0.971947881343228	1	TRUE
"0304b"	56	2	"pro"	2	640	512	426	1832	35	"left"	"^"	"^"	TRUE	1330368874.17199	1330368878.71171	1330368880.27029	1330368880.5037	1330368880.90034	1330368881.06467	1330368881.60191	"left"	"left"	TRUE	0.291711091995239	0.112335920333862	174.065348538383	10.3006564303112	0.948260338692697	1	TRUE
"0304b"	57	2	"pro"	2	640	512	426	3264	35	"right"	"^"	"^"	TRUE	1330368881.60989	1330368882.8622	1330368885.92238	1330368886.12078	1330368886.5167	1330368886.68208	1330368887.02117	"right"	"right"	TRUE	0.25246787071228	0.0913441181182861	184.851457827515	11.1057959614493	1.02238006976588	1	TRUE
"0304b"	58	2	"pro"	2	640	512	426	2539	35	"right"	"<"	"<"	TRUE	1330368887.02882	1330368888.93	1330368891.18105	1330368891.41205	1330368891.80915	1330368891.97517	1330368892.28367	"right"	"right"	TRUE	0.281522035598755	0.0920901298522949	171.52100712793	10.1558662071077	0.934931205057072	1	TRUE
"0304b"	59	2	"pro"	2	640	512	426	2483	35	"right"	">"	">"	TRUE	1330368892.29131	1330368899.0468	1330368901.29627	1330368901.5282	1330368901.92423	1330368902.08821	1330368902.4271	"right"	"right"	TRUE	0.271566152572632	0.0783789157867432	187.713083792742	11.0783404277169	1.01985256155393	1	TRUE
"0304b"	60	2	"anti"	2	640	512	426	2868	35	"right"	"^"	">"	FALSE	1330368902.43364	1330368907.42322	1330368909.99762	1330368910.22746	1330368910.6246	1330368910.78982	1330368911.49059	"left"	"right"	FALSE	0.272674798965454	0.077376127243042	142.430912429559	8.32912933906792	0.766765017502989	1	TRUE
"0304b"	61	2	"anti"	2	640	512	426	1773	35	"left"	"^"	"^"	TRUE	1330368911.49767	1330368913.94658	1330368915.4838	1330368915.71464	1330368916.11081	1330368916.27545	1330368916.648	"right"	"left"	FALSE	0.291123867034912	0.0901119709014893	171.327173397081	10.2197651138131	0.94081362617503	1	TRUE
"0304b"	62	2	"anti"	2	640	512	426	2053	35	"right"	"^"	">"	FALSE	1330368916.65292	1330368918.2372	1330368920.01378	1330368920.24596	1330368920.64224	1330368920.80727	1330368921.84113	"left"	"right"	FALSE	0.27118992805481	0.0859999656677246	183.185718810722	11.0194291823643	1.01442929577967	1	TRUE
"0304b"	63	2	"anti"	2	640	512	426	1934	35	"left"	">"	">"	TRUE	1330368921.84924	1330368924.90342	1330368926.59706	1330368926.82891	1330368927.22499	1330368927.38916	1330368927.86062	"right"	"left"	FALSE	0.315263986587524	0.0881569385528564	151.910383699461	8.94116866499558	0.823108282849611	1	TRUE
"0304b"	64	2	"pro"	2	640	512	426	2032	35	"right"	"<"	"<"	TRUE	1330368927.86591	1330368929.02034	1330368930.7968	1330368931.02738	1330368931.42695	1330368931.68719	1330368932.32316	"right"	"right"	TRUE	0.556772947311401	0.0997750759124756	266.018483909715	1.55706927288274	0.143341062393552	1	TRUE
"0304b"	65	2	"anti"	2	640	512	426	1976	35	"right"	"<"	"<"	TRUE	1330368932.33164	1330368934.53892	1330368936.281	1330368936.5127	1330368936.90872	1330368937.07363	1330368937.51238	"left"	"right"	FALSE	0.238353967666626	0.0791418552398682	187.917250284276	11.0858719153999	1.02054589708157	1	TRUE
"0304b"	66	2	"pro"	2	640	512	426	2805	35	"right"	"^"	"^"	TRUE	1330368937.51979	1330368938.65602	1330368941.20767	1330368941.4397	1330368941.83673	1330368942.00177	1330368942.44133	"right"	"left"	FALSE	0.0308611392974854	0.00904703140258789	11.7769907526392	0.149243760282899	0.0137391184368779	1	TRUE
"0304b"	67	2	"pro"	2	640	512	426	2692	35	"right"	">"	">"	TRUE	1330368942.44997	1330368943.41248	1330368945.80191	1330368946.03125	1330368946.43064	1330368946.59566	1330368946.90094	"right"	"right"	TRUE	0.277846097946167	0.0829160213470459	186.140948280631	11.0020810150224	1.01283225396486	1	TRUE
"0304b"	68	2	"pro"	2	640	512	426	2253	35	"left"	"<"	"<"	TRUE	1330368946.90665	1330368952.21043	1330368954.23287	1330368954.46321	1330368954.86086	1330368955.02599	1330368955.36484	"left"	NA	NA	NA	NA	NA	NA	NA	0.411764705882353	TRUE
"0304b"	69	2	"anti"	2	640	512	426	2917	35	"right"	"<"	"<"	TRUE	1330368955.37242	1330368961.47436	1330368964.14718	1330368964.37979	1330368964.77776	1330368964.94264	1330368965.44512	"left"	"right"	FALSE	0.272156953811646	0.0832030773162842	162.75010144532	9.75572598955175	0.898094999443256	1	TRUE
"0304b"	70	2	"anti"	2	640	512	426	3299	35	"left"	"<"	"<"	TRUE	1330368965.44917	1330368968.00493	1330368971.02656	1330368971.25732	1330368971.6532	1330368971.81909	1330368972.25628	"right"	"left"	FALSE	0.292917013168335	0.0824880599975586	176.877770497138	10.5841498941017	0.974358249035583	1	TRUE
"0304b"	71	2	"anti"	2	640	512	426	2286	35	"right"	"<"	"<"	TRUE	1330368972.26335	1330368974.53638	1330368976.57865	1330368976.81008	1330368977.20685	1330368977.37182	1330368977.94142	"left"	"right"	FALSE	0.308960914611816	0.0827879905700684	168.56452500335	10.0185227646029	0.922287608972881	1	TRUE
"0304b"	72	2	"anti"	2	640	512	426	2202	35	"left"	">"	">"	TRUE	1330368977.94929	1330368981.42769	1330368983.38496	1330368983.61575	1330368984.0129	1330368984.17867	1330368984.55064	"right"	"left"	FALSE	0.259879112243652	0.0921759605407715	159.194334175807	9.37093217544199	0.862671556775967	1	TRUE
"0304b"	73	2	"pro"	2	640	512	426	1674	35	"right"	">"	">"	TRUE	1330368984.55647	1330368987.90136	1330368989.33743	1330368989.56864	1330368989.96615	1330368990.13043	1330368990.50205	"right"	"right"	TRUE	0.341815948486328	0.0831630229949951	172.86871237969	10.2940020322569	0.947647746495743	1	TRUE
"0304b"	74	2	"anti"	2	640	512	426	3065	35	"left"	">"	">"	TRUE	1330368990.50817	1330368992.94918	1330368995.78307	1330368996.01386	1330368996.40964	1330368996.57563	1330368996.98213	"right"	"left"	FALSE	0.287267923355103	0.0839471817016602	162.498967735557	9.63124758766117	0.886635736401598	1	TRUE
"0304b"	75	2	"pro"	2	640	512	426	3011	35	"left"	"^"	"^"	TRUE	1330368996.98967	1330368998.95738	1330369001.73548	1330369001.96724	1330369002.36471	1330369002.52984	1330369002.96657	"left"	"left"	TRUE	0.260771036148071	0.0829081535339355	163.723733883638	9.6031074332006	0.884045203207895	1	TRUE
"0304b"	76	2	"anti"	2	640	512	426	2871	35	"right"	">"	">"	TRUE	1330369002.97496	1330369017.90362	1330369020.47257	1330369020.70593	1330369021.10282	1330369021.26903	1330369021.94083	"left"	"right"	FALSE	0.371681928634644	0.091001033782959	179.184533919826	10.685344210592	0.983674020071934	1	TRUE
"0304b"	77	2	"pro"	2	640	512	426	3384	35	"left"	">"	">"	TRUE	1330369021.94901	1330369025.41878	1330369028.56943	1330369028.80091	1330369029.20004	1330369029.36421	1330369029.73793	"left"	"left"	TRUE	0.26061487197876	0.0833320617675781	177.681684277361	10.4172772830714	0.958996249562572	1	TRUE
"0304b"	78	2	"pro"	2	640	512	426	2982	35	"left"	">"	">"	TRUE	1330369029.74289	1330369034.34077	1330369037.06707	1330369037.29845	1330369037.69598	1330369037.86057	1330369038.10159	"left"	NA	NA	NA	NA	NA	NA	NA	0.514705882352941	TRUE
"0304b"	79	2	"anti"	2	640	512	426	2437	35	"right"	"<"	"<"	TRUE	1330369038.109	1330369039.30403	1330369041.39788	1330369041.62861	1330369042.02358	1330369042.18971	1330369042.59307	"left"	"right"	FALSE	0.274441003799438	0.0823378562927246	181.42752074625	10.6012215285986	0.975929833722406	1	TRUE
"0304b"	80	2	"anti"	2	640	512	426	1861	35	"right"	"<"	"<"	TRUE	1330369042.60017	1330369050.56639	1330369052.18183	1330369052.41377	1330369052.81255	1330369052.97873	1330369053.56066	"left"	"right"	FALSE	0.386523962020874	0.0920541286468506	159.71594760396	9.56652157489371	0.880677173352306	1	TRUE
"0304b"	81	3	"anti"	2	640	512	426	2696	35	"left"	">"	">"	TRUE	1330369074.94883	1330369075.9504	1330369078.39425	1330369078.62537	1330369079.023	1330369079.1886	1330369079.62749	"right"	"left"	FALSE	0.246482849121094	0.0923240184783936	170.174630276951	10.1821070561039	0.937346891525699	1	TRUE
"0304b"	82	3	"pro"	2	640	512	426	2022	35	"right"	"^"	"^"	TRUE	1330369079.63546	1330369080.43998	1330369082.23011	1330369082.46179	1330369082.85788	1330369083.02144	1330369083.52801	"right"	"right"	TRUE	0.252424955368042	0.0930888652801514	189.869266957824	11.2504545313477	1.03569708362948	1	TRUE
"0304b"	83	3	"anti"	2	640	512	426	3232	35	"right"	"<"	"<"	TRUE	1330369083.53577	1330369084.75793	1330369087.72565	1330369087.98975	1330369088.38644	1330369088.55184	1330369088.95619	"left"	"right"	FALSE	0.211818933486938	0.0932469367980957	160.73958534095	9.47310281742389	0.872077206622234	1	TRUE
"0304b"	84	3	"anti"	2	640	512	426	2562	35	"right"	"^"	">"	FALSE	1330369088.96541	1330369096.11097	1330369098.43752	1330369098.67006	1330369099.06472	1330369099.23016	1330369099.96583	"left"	"right"	FALSE	0.229841947555542	0.0918560028076172	170.245144895142	10.0623024469308	0.926317889632463	1	TRUE
"0304b"	85	3	"pro"	2	640	512	426	3090	35	"left"	"^"	"^"	TRUE	1330369099.97123	1330369103.84712	1330369106.69727	1330369106.92942	1330369107.32497	1330369107.49058	1330369107.9602	"left"	"left"	TRUE	0.262709856033325	0.0910232067108154	175.308539529313	10.2272304185894	0.941500869020527	1	TRUE
"0304b"	86	3	"anti"	2	640	512	426	2762	35	"right"	"<"	"<"	TRUE	1330369107.96419	1330369113.23448	1330369115.75796	1330369115.98904	1330369116.38456	1330369116.54949	1330369117.18578	"left"	"right"	FALSE	0.283293962478638	0.0913891792297363	189.273880701069	11.2492529225855	1.03558646563736	1	TRUE
"0304b"	87	3	"anti"	2	640	512	426	2737	35	"right"	"<"	"<"	TRUE	1330369117.19357	1330369118.21127	1330369120.6839	1330369120.91424	1330369121.31064	1330369121.47606	1330369121.94642	"left"	"right"	FALSE	0.25542688369751	0.0833089351654053	176.662473598939	10.313267266085	0.94942127008411	1	TRUE
"0304b"	88	3	"anti"	2	640	512	426	2820	35	"right"	"^"	"^"	TRUE	1330369121.94997	1330369125.30334	1330369127.856	1330369128.08738	1330369128.4849	1330369128.64984	1330369129.25456	"left"	"right"	FALSE	0.228391170501709	0.0917308330535889	170.168733833944	10.0883770679562	0.928718273446077	1	TRUE
"0304b"	89	3	"anti"	2	640	512	426	2323	35	"left"	"^"	"^"	TRUE	1330369129.26237	1330369131.42004	1330369133.51007	1330369133.74035	1330369134.13686	1330369134.30256	1330369134.67383	"right"	"left"	FALSE	0.24525785446167	0.0924251079559326	178.628096494648	10.6242533201158	0.978050099995975	1	TRUE
"0304b"	90	3	"anti"	2	640	512	426	1754	35	"left"	"^"	"^"	TRUE	1330369134.68292	1330369140.91969	1330369142.43264	1330369142.66353	1330369143.05854	1330369143.22321	1330369143.53152	"right"	"left"	FALSE	0.271741151809692	0.0888118743896484	179.166966394342	10.6302204701098	0.978599425343599	1	TRUE
"0304b"	91	3	"pro"	2	640	512	426	2129	35	"right"	"^"	"^"	TRUE	1330369143.5385	1330369151.06355	1330369152.90892	1330369153.13912	1330369153.53766	1330369153.70257	1330369154.13863	"right"	NA	NA	NA	NA	NA	NA	NA	1	TRUE
"0304b"	92	3	"pro"	2	640	512	426	1720	35	"left"	">"	">"	TRUE	1330369154.14638	1330369156.31805	1330369157.79905	1330369158.02883	1330369158.42486	1330369158.58977	1330369159.12792	"left"	"left"	TRUE	0.403450012207031	0.0890820026397705	157.559618709458	9.35184119496947	0.860914074645451	1	TRUE
"0304b"	93	3	"anti"	2	640	512	426	2169	35	"left"	">"	">"	TRUE	1330369159.13539	1330369162.30594	1330369164.21193	1330369164.44336	1330369164.83943	1330369165.00505	1330369165.41071	"right"	"left"	FALSE	0.271168947219849	0.0811641216278076	177.215343781589	10.5721131916474	0.973250171349155	1	TRUE
"0304b"	94	3	"anti"	2	640	512	426	2454	35	"right"	"^"	"^"	TRUE	1330369165.41792	1330369168.57153	1330369170.75616	1330369170.98788	1330369171.38416	1330369171.54928	1330369172.05394	"left"	"right"	FALSE	0.271588802337646	0.0770211219787598	170.716881294834	10.0433989634732	0.924577668147821	1	TRUE
"0304b"	95	3	"anti"	2	640	512	426	2334	35	"left"	"<"	"<"	TRUE	1330369172.05795	1330369173.29504	1330369175.38253	1330369175.61328	1330369176.01044	1330369176.17562	1330369176.54879	"right"	"left"	FALSE	0.2219398021698	0.0909781455993652	164.070131274363	9.60654073139901	0.884361266609727	1	TRUE
"0304b"	96	3	"anti"	2	640	512	426	2123	35	"right"	"^"	"^"	TRUE	1330369176.55686	1330369177.86768	1330369179.74203	1330369179.97401	1330369180.37017	1330369180.53549	1330369181.0395	"left"	"right"	FALSE	0.260179042816162	0.0908360481262207	175.799887924635	10.47417593058	0.964234239114275	1	TRUE
"0304b"	97	3	"pro"	2	640	512	426	1682	35	"left"	">"	"^"	FALSE	1330369181.04781	1330369183.38476	1330369184.80016	1330369185.06384	1330369185.46096	1330369185.62519	1330369186.69201	"left"	"left"	TRUE	0.272023916244507	0.0859808921813965	178.2755652699	10.5638420697787	0.972488746397487	1	TRUE
"0304b"	98	3	"pro"	2	640	512	426	1622	35	"right"	">"	">"	TRUE	1330369186.69993	1330369187.78846	1330369189.12698	1330369189.35806	1330369189.75396	1330369189.91858	1330369190.22778	"right"	"right"	TRUE	0.270303964614868	0.0848798751831055	172.808053866548	10.3502527636956	0.952826090032063	1	TRUE
"0304b"	99	3	"pro"	2	640	512	426	2202	35	"left"	"^"	"^"	TRUE	1330369190.23596	1330369191.38989	1330369193.35725	1330369193.59002	1330369193.98616	1330369194.15114	1330369194.52231	"left"	"left"	TRUE	0.273115873336792	0.0843091011047363	172.428727325904	10.3191034339076	0.949958537443095	1	TRUE
"0304b"	100	3	"anti"	2	640	512	426	2495	35	"right"	"^"	"^"	TRUE	1330369194.52743	1330369199.56479	1330369201.78568	1330369202.0171	1330369202.41424	1330369202.57981	1330369202.98529	"left"	"right"	FALSE	0.328960180282593	0.0832328796386719	158.836417463792	9.32428586020808	0.858377378926066	1	TRUE
"0304b"	101	3	"anti"	2	640	512	426	2832	35	"left"	"^"	"^"	TRUE	1330369202.99376	1330369216.49767	1330369219.06642	1330369219.29896	1330369219.69593	1330369219.86091	1330369220.39876	"right"	"left"	FALSE	0.312566041946411	0.0825939178466797	176.257496832962	10.4618332180513	0.963097990677875	1	TRUE
"0304b"	102	3	"pro"	2	640	512	426	2706	35	"left"	">"	">"	TRUE	1330369220.40761	1330369223.42886	1330369225.81485	1330369226.04533	1330369226.44127	1330369226.60692	1330369226.94768	"left"	"left"	TRUE	0.272123098373413	0.0826590061187744	182.301729581211	10.8004391078726	0.994269454160578	1	TRUE
"0304b"	103	3	"pro"	2	640	512	426	1722	35	"left"	"<"	"<"	TRUE	1330369226.95588	1330369227.29675	1330369228.78561	1330369229.01648	1330369229.41378	1330369229.57846	1330369229.88637	"left"	"left"	TRUE	0.339200973510742	0.0819771289825439	160.687129132114	9.37342629258997	0.862901160819891	1	TRUE
"0304b"	104	3	"pro"	2	640	512	426	2691	35	"right"	"^"	"^"	TRUE	1330369229.89367	1330369234.73298	1330369237.18436	1330369237.41588	1330369237.81195	1330369237.97644	1330369238.34807	"right"	"right"	TRUE	0.279728889465332	0.0918281078338623	177.11852511753	10.5735519305223	0.973382619122947	1	TRUE
"0304b"	105	3	"pro"	2	640	512	426	2219	35	"right"	"^"	"^"	TRUE	1330369238.35192	1330369238.71232	1330369240.68838	1330369240.9195	1330369241.31625	1330369241.48213	1330369241.8219	"right"	"right"	TRUE	0.304929971694946	0.0830628871917725	186.755574523132	11.0301229588092	1.01541374605643	1	TRUE
"0304b"	106	3	"anti"	2	640	512	426	2025	35	"left"	"<"	"<"	TRUE	1330369241.82949	1330369247.63924	1330369249.41799	1330369249.6501	1330369250.04638	1330369250.21296	1330369250.65367	"right"	"left"	FALSE	0.280344009399414	0.0828769207000732	168.093886061843	9.84645603330875	0.906447447911438	1	TRUE
"0304b"	107	3	"anti"	2	640	512	426	3403	35	"left"	">"	">"	TRUE	1330369250.66159	1330369251.577	1330369254.71052	1330369254.97538	1330369255.37247	1330369255.53837	1330369255.90955	"right"	"left"	FALSE	0.243204116821289	0.0828080177307129	186.119837682428	10.957071666481	1.00868877239347	1	TRUE
"0304b"	108	3	"pro"	2	640	512	426	2588	35	"left"	"^"	"^"	TRUE	1330369255.91589	1330369264.10695	1330369266.45791	1330369266.68995	1330369267.08626	1330369267.25267	1330369267.56016	"left"	NA	NA	NA	NA	NA	NA	NA	0.417910447761194	TRUE
"0304b"	109	3	"pro"	2	640	512	426	1609	35	"right"	">"	">"	TRUE	1330369267.5698	1330369279.01431	1330369280.34604	1330369280.57679	1330369280.97247	1330369281.13777	1330369281.5133	"right"	"right"	TRUE	0.404751062393188	0.0826330184936523	171.409370833454	10.2677081687809	0.945227179607215	1	TRUE
"0304b"	110	3	"anti"	2	640	512	426	1540	35	"left"	">"	">"	TRUE	1330369281.52075	1330369289.40677	1330369290.68774	1330369290.91823	1330369291.31595	1330369291.48203	1330369291.92172	"right"	"right"	TRUE	0.223564147949219	0.339435815811157	273.334984280543	1.4662528236962	0.134980659593291	1	TRUE
"0304b"	111	3	"pro"	2	640	512	426	2762	35	"left"	"^"	"^"	TRUE	1330369291.92972	1330369299.86483	1330369302.38584	1330369302.61769	1330369303.01474	1330369303.17953	1330369303.71643	"left"	"left"	TRUE	0.271030902862549	0.0725610256195068	125.157163053719	7.49331753684896	0.689821651027503	1	TRUE
"0304b"	112	3	"pro"	2	640	512	426	2761	35	"right"	"^"	"^"	TRUE	1330369303.72489	1330369308.45573	1330369310.97997	1330369311.21131	1330369311.61056	1330369311.77508	1330369312.11583	"right"	"right"	TRUE	0.298771858215332	0.0834009647369385	176.164814409054	10.3398106414014	0.951864806594411	1	TRUE
"0304b"	113	3	"pro"	2	640	512	426	1609	35	"right"	">"	">"	TRUE	1330369312.12388	1330369316.7232	1330369318.09453	1330369318.32549	1330369318.72183	1330369318.88654	1330369319.22389	"right"	"left"	FALSE	0.181550025939941	0.042227029800415	23.3002114581373	1.18135316350131	0.108753297279288	1	TRUE
"0304b"	114	3	"anti"	2	640	512	426	1828	35	"left"	"^"	"^"	TRUE	1330369319.23032	1330369326.40503	1330369327.98146	1330369328.21262	1330369328.61072	1330369328.77556	1330369329.24776	"right"	"left"	FALSE	0.313561916351318	0.0997920036315918	156.573075155325	9.22174343071548	0.848937502974579	1	TRUE
"0304b"	115	3	"pro"	2	640	512	426	1913	35	"right"	"^"	"^"	TRUE	1330369329.25637	1330369332.22245	1330369333.86789	1330369334.13075	1330369334.52746	1330369334.69308	1330369335.03349	"right"	"right"	TRUE	0.279291152954102	0.0836000442504883	174.444395642103	10.2817026423021	0.946515486259399	1	TRUE
"0304b"	116	3	"anti"	2	640	512	426	2642	35	"right"	">"	">"	TRUE	1330369335.0409	1330369341.47242	1330369343.81487	1330369344.07888	1330369344.47575	1330369344.6416	1330369345.04689	"left"	"right"	FALSE	0.390835046768188	0.092350959777832	150.125450644348	4.61595760676895	0.424936949717643	1	TRUE
"0304b"	117	3	"pro"	2	640	512	426	2637	35	"left"	"<"	"<"	TRUE	1330369345.05122	1330369351.03664	1330369353.42871	1330369353.65968	1330369354.05713	1330369354.22259	1330369354.62962	"left"	"left"	TRUE	0.298341035842896	0.0908360481262207	182.663337954788	10.8649069196955	1.00020424768442	1	TRUE
"0304b"	118	3	"anti"	2	640	512	426	2851	35	"right"	">"	">"	TRUE	1330369354.63855	1330369363.28734	1330369365.88324	1330369366.11608	1330369366.51554	1330369366.68083	1330369367.25006	"left"	"right"	FALSE	0.339585065841675	0.0853598117828369	169.520440331992	10.084742224393	0.92838365613196	1	TRUE
"0304b"	119	3	"pro"	2	640	512	426	2724	35	"left"	"^"	"^"	TRUE	1330369367.25491	1330369375.94405	1330369378.38197	1330369378.6128	1330369379.00833	1330369379.17315	1330369379.87925	"left"	"left"	TRUE	0.270769119262695	0.108031034469604	134.213911723593	10.7702933743699	0.991494290882896	1	TRUE
"0304b"	120	3	"pro"	2	640	512	426	3402	35	"right"	"<"	"<"	TRUE	1330369379.88734	1330369383.28045	1330369386.41169	1330369386.67643	1330369387.0742	1330369387.24079	1330369393.74676	"right"	"right"	TRUE	0.274091005325317	0.0982038974761963	193.089599891244	11.4023798627199	1.04968306279087	1	TRUE
"0304b"	121	4	"pro"	2	640	512	426	3109	35	"left"	">"	">"	TRUE	1330369398.26828	1330369405.29378	1330369408.14606	1330369408.37662	1330369408.77303	1330369408.93754	1330369409.93681	"left"	"left"	TRUE	0.262695074081421	0.0910189151763916	177.968288274468	10.3296649259135	0.950930809846733	1	TRUE
"0304b"	122	4	"anti"	2	640	512	426	2421	35	"right"	"<"	"<"	TRUE	1330369409.94194	1330369411.11277	1330369413.30041	1330369413.53125	1330369413.92797	1330369414.09141	1330369414.72778	"left"	"right"	FALSE	0.254140853881836	0.0837211608886719	178.248095454393	10.5230436552427	0.968732916014466	1	TRUE
"0304b"	123	4	"pro"	2	640	512	426	2518	35	"right"	">"	">"	TRUE	1330369414.73166	1330369421.04142	1330369423.3175	1330369423.54932	1330369423.9466	1330369424.11145	1330369424.41766	"right"	"right"	TRUE	0.263159036636353	0.0907340049743652	186.735839901067	10.9679601058409	1.00969114299626	1	TRUE
"0304b"	124	4	"anti"	2	640	512	426	2215	35	"right"	"^"	">"	FALSE	1330369424.42649	1330369427.95433	1330369429.93051	1330369430.16146	1330369430.55791	1330369430.72245	1330369431.49035	"left"	"right"	FALSE	0.249395847320557	0.0912301540374756	169.040840114985	9.96763615966029	0.91760307750013	1	TRUE
"0304b"	125	4	"anti"	2	640	512	426	1593	35	"left"	"^"	"^"	TRUE	1330369431.49838	1330369436.29608	1330369437.65786	1330369437.88842	1330369438.28458	1330369438.44949	1330369438.95373	"right"	"right"	TRUE	0.29122519493103	0.125131845474243	219.355835781793	5.99278211253104	0.551684995435631	1	TRUE
"0304b"	126	4	"anti"	2	640	512	426	2556	35	"right"	">"	">"	TRUE	1330369438.95984	1330369441.2594	1330369443.54302	1330369443.77414	1330369444.17196	1330369444.33781	1330369444.87331	"left"	"right"	FALSE	0.307088136672974	0.0832369327545166	175.755006132206	10.4663682596495	0.963515478641966	1	TRUE
"0304b"	127	4	"anti"	2	640	512	426	1600	35	"left"	"<"	"<"	TRUE	1330369444.87796	1330369446.61215	1330369447.97244	1330369448.20475	1330369448.6016	1330369448.76625	1330369449.13676	"right"	"left"	FALSE	0.00734186172485352	0.0521979331970215	96.9236140189028	5.08132324309372	0.467777692820065	1	TRUE
"0304b"	128	4	"anti"	2	640	512	426	2400	35	"left"	"<"	"<"	TRUE	1330369449.14519	1330369449.50112	1330369451.64289	1330369451.87327	1330369452.27042	1330369452.43561	1330369452.90586	"right"	"left"	FALSE	0.325972080230713	0.0829761028289795	155.762713097905	9.31173157476053	0.857221653458367	1	TRUE
"0304b"	129	4	"pro"	2	640	512	426	1615	35	"left"	">"	">"	TRUE	1330369452.91259	1330369455.95859	1330369457.32528	1330369457.55684	1330369457.9531	1330369458.11828	1330369458.49038	"left"	"left"	TRUE	0.344162225723267	0.0827798843383789	114.990902862407	6.67882656803007	0.614841043026483	1	TRUE
"0304b"	130	4	"pro"	2	640	512	426	1706	35	"left"	"<"	"<"	TRUE	1330369458.49881	1330369458.91922	1330369460.3654	1330369460.59687	1330369460.99228	1330369461.15657	1330369461.49554	"left"	"left"	TRUE	0.292125940322876	0.0915110111236572	155.099876123462	9.06421460364208	0.834435675841027	1	TRUE
"0304b"	131	4	"pro"	2	640	512	426	2967	35	"left"	"<"	"<"	TRUE	1330369461.50313	1330369463.15135	1330369465.82098	1330369466.01897	1330369466.41499	1330369466.57923	1330369466.91738	"left"	"left"	TRUE	0.248219966888428	0.0922980308532715	175.430115685114	10.2130881276483	0.940198954556292	1	TRUE
"0304b"	132	4	"anti"	2	640	512	426	2979	35	"left"	"^"	"^"	TRUE	1330369466.92353	1330369468.78262	1330369471.50504	1330369471.73641	1330369472.13249	1330369472.29861	1330369472.80196	"right"	"left"	FALSE	0.274837970733643	0.0959699153900146	180.053134221623	10.5513961001679	0.971342992295473	1	TRUE
"0304b"	133	4	"pro"	2	640	512	426	2378	35	"left"	"^"	"^"	TRUE	1330369472.80795	1330369479.35743	1330369481.48158	1330369481.71258	1330369482.10904	1330369482.27385	1330369482.74471	"left"	"left"	TRUE	0.250781059265137	0.0868909358978271	156.987309008106	9.17059838799488	0.84422918017391	1	TRUE
"0304b"	134	4	"pro"	2	640	512	426	1578	35	"left"	"^"	"^"	TRUE	1330369482.75143	1330369485.69007	1330369487.03158	1330369487.26342	1330369487.65912	1330369487.82477	1330369488.16353	"left"	"left"	TRUE	0.252509832382202	0.0918200016021729	181.089997778947	10.7342709102445	0.988178126106096	1	TRUE
"0304b"	135	4	"anti"	2	640	512	426	1823	35	"right"	">"	">"	TRUE	1330369488.17204	1330369488.5915	1330369490.17038	1330369490.40265	1330369490.80091	1330369490.96561	1330369491.50107	"left"	"right"	FALSE	0.306366920471191	0.0860931873321533	179.542640994005	10.6058220795061	0.976353352358447	1	TRUE
"0304b"	136	4	"pro"	2	640	512	426	1753	35	"left"	"^"	"^"	TRUE	1330369491.50904	1330369495.53471	1330369497.04716	1330369497.27962	1330369497.67589	1330369497.84049	1330369498.2488	"left"	"left"	TRUE	0.26301097869873	0.0923881530761719	173.755128896918	10.3112418352982	0.949234812483381	1	TRUE
"0304b"	137	4	"pro"	2	640	512	426	2829	35	"right"	">"	">"	TRUE	1330369498.25637	1330369498.85411	1330369501.44118	1330369501.67305	1330369502.0684	1330369502.23439	1330369502.57289	"right"	"right"	TRUE	0.252053022384644	0.0844480991363525	181.98870728008	10.9086057826771	1.00422708825694	1	TRUE
"0304b"	138	4	"pro"	2	640	512	426	2347	35	"right"	">"	">"	TRUE	1330369502.58101	1330369504.95201	1330369507.05881	1330369507.2909	1330369507.68687	1330369507.85156	1330369508.46838	"right"	"right"	TRUE	0.337174892425537	0.0826301574707031	168.538276652087	9.96903795644156	0.917732124449669	1	TRUE
"0304b"	139	4	"pro"	2	640	512	426	2560	35	"left"	">"	">"	TRUE	1330369508.47663	1330369518.75788	1330369521.06259	1330369521.29343	1330369521.68999	1330369521.85501	1330369522.16119	"left"	"left"	TRUE	0.25360894203186	0.0659060478210449	183.836438622473	10.734598952447	0.988208325095081	1	TRUE
"0304b"	140	4	"pro"	2	640	512	426	2713	35	"right"	"<"	"<"	TRUE	1330369522.17016	1330369529.29172	1330369531.77151	1330369532.00361	1330369532.40166	1330369532.56627	1330369532.90489	"right"	"right"	TRUE	0.306421995162964	0.0855238437652588	188.757968188649	11.2889612045763	1.039241940333	1	TRUE
"0304b"	141	4	"anti"	2	640	512	426	2977	35	"right"	"<"	"<"	TRUE	1330369532.9104	1330369541.19704	1330369543.93252	1330369544.16309	1330369544.56102	1330369544.72598	1330369545.56034	"left"	"right"	FALSE	0.338860988616943	0.0782930850982666	160.839438224866	9.51577634668233	0.876005656773113	1	TRUE
"0304b"	142	4	"anti"	2	640	512	426	2419	35	"right"	"^"	"^"	TRUE	1330369545.56779	1330369549.58488	1330369551.76769	1330369551.99817	1330369552.39517	1330369552.56015	1330369553.0314	"left"	"right"	FALSE	0.305516958236694	0.0782649517059326	167.812538393254	9.84693501174731	0.906491541825204	1	TRUE
"0304b"	143	4	"pro"	2	640	512	426	2287	35	"right"	"^"	"^"	TRUE	1330369553.038	1330369558.8811	1330369560.92265	1330369561.15469	1330369561.55172	1330369561.71772	1330369561.95622	"right"	"right"	TRUE	0.304424047470093	0.0867209434509277	178.998466678224	10.5957090665367	0.975422366147187	1	TRUE
"0304b"	144	4	"pro"	2	640	512	426	2397	35	"left"	"^"	"^"	TRUE	1330369561.96068	1330369565.81174	1330369567.96814	1330369568.20083	1330369568.59697	1330369568.76162	1330369569.03249	"left"	"left"	TRUE	0.271157026290894	0.0787930488586426	191.034682735147	11.263169438907	1.03686759568667	1	TRUE
"0304b"	145	4	"anti"	2	640	512	426	2502	35	"left"	"^"	"^"	TRUE	1330369569.0401	1330369569.56403	1330369571.80127	1330369572.03198	1330369572.42867	1330369572.59415	1330369572.93404	"right"	"left"	FALSE	0.221987009048462	0.0901029109954834	174.494126176159	10.2753889471848	0.945934258576406	1	TRUE
"0304b"	146	4	"pro"	2	640	512	426	3066	35	"right"	"<"	"<"	TRUE	1330369572.94172	1330369573.92999	1330369576.69353	1330369576.92512	1330369577.32079	1330369577.48537	1330369577.95636	"right"	"right"	TRUE	0.315686225891113	0.0922458171844482	188.930971736582	11.0852489272808	1.02048854588955	1	TRUE
"0304b"	147	4	"anti"	2	640	512	426	2760	35	"left"	"<"	"<"	TRUE	1330369577.96364	1330369584.12205	1330369586.64277	1330369586.87383	1330369587.27046	1330369587.43528	1330369587.87475	"right"	"left"	FALSE	0.244665861129761	0.0937700271606445	147.089500469965	8.8257963317404	0.812487308492444	1	TRUE
"0304b"	148	4	"anti"	2	640	512	426	3208	35	"left"	"^"	"^"	TRUE	1330369587.8823	1330369590.16519	1330369593.12069	1330369593.35382	1330369593.74974	1330369593.91488	1330369594.35104	"right"	"left"	FALSE	0.313683986663818	0.090008020401001	167.654706684717	10.0132463022754	0.921801867118697	1	TRUE
"0304b"	149	4	"pro"	2	640	512	426	2311	35	"right"	">"	">"	TRUE	1330369594.35609	1330369594.8477	1330369596.89047	1330369597.1534	1330369597.54926	1330369597.71452	1330369598.09139	"right"	"right"	TRUE	0.282080888748169	0.0882999897003174	178.039618451505	10.5169274989975	0.968169873413069	1	TRUE
"0304b"	150	4	"anti"	2	640	512	426	2596	35	"right"	">"	">"	TRUE	1330369598.09904	1330369598.6639	1330369601.02276	1330369601.25448	1330369601.65105	1330369601.81536	1330369602.28531	"left"	"right"	FALSE	0.303844928741455	0.0853362083435059	177.246878073824	10.5094656894803	0.967482952334993	1	TRUE
"0304b"	151	4	"anti"	2	640	512	426	2467	35	"left"	"<"	"<"	TRUE	1330369602.29135	1330369603.22086	1330369605.41953	1330369605.65184	1330369606.0479	1330369606.21299	1330369606.6165	"right"	"left"	FALSE	0.274605989456177	0.095876932144165	177.469339771572	10.5834047282156	0.974289650372935	1	TRUE
"0304b"	152	4	"anti"	2	640	512	426	1850	35	"right"	"<"	"<"	TRUE	1330369606.62391	1330369608.69967	1330369610.3112	1330369610.54295	1330369610.93907	1330369611.10455	1330369611.57953	"left"	"right"	FALSE	0.237855911254883	0.0857629776000977	170.676878901016	10.1505102869033	0.934438148450297	1	TRUE
"0304b"	153	4	"anti"	2	640	512	426	2715	35	"right"	"^"	"<"	FALSE	1330369611.58753	1330369615.9997	1330369618.43808	1330369618.67059	1330369619.0664	1330369619.23269	1330369619.67179	"left"	"right"	FALSE	0.254002094268799	0.0833230018615723	173.000575869469	10.3411516537469	0.951988257835559	1	TRUE
"0304b"	154	4	"pro"	2	640	512	426	2075	35	"right"	">"	">"	TRUE	1330369619.68073	1330369620.04548	1330369621.90854	1330369622.108	1330369622.50492	1330369622.67078	1330369623.01047	"right"	"right"	TRUE	0.411669969558716	0.082348108291626	174.745788942057	10.4237055031833	0.959588020215416	1	TRUE
"0304b"	155	4	"anti"	2	640	512	426	2296	35	"right"	">"	">"	TRUE	1330369623.01721	1330369623.54219	1330369625.58225	1330369625.81403	1330369626.21206	1330369626.3767	1330369626.88144	"left"	"right"	FALSE	0.290970087051392	0.0831589698791504	183.219748971275	10.910119055113	1.00436639745945	1	TRUE
"0304b"	156	4	"pro"	2	640	512	426	2096	35	"left"	">"	">"	TRUE	1330369626.88553	1330369628.37021	1330369630.20997	1330369630.44102	1330369630.83642	1330369631.00185	1330369631.83652	"left"	"left"	TRUE	0.270612955093384	0.075106143951416	185.934069054472	10.9123642167712	1.00457308309825	1	TRUE
"0304b"	157	4	"pro"	2	640	512	426	3471	35	"right"	"^"	"^"	TRUE	1330369631.83995	1330369633.0271	1330369636.25554	1330369636.48705	1330369636.88449	1330369637.05076	1330369637.38915	"right"	"right"	TRUE	0.249797105789185	0.0922200679779053	180.913570785923	10.6128900080482	0.977004013445779	1	TRUE
"0304b"	158	4	"anti"	2	640	512	426	2388	35	"left"	"<"	"<"	TRUE	1330369637.39364	1330369641.72613	1330369643.72455	1330369643.95565	1330369644.35169	1330369644.51657	1330369644.95473	"right"	"left"	FALSE	0.251312971115112	0.0925240516662598	165.656779695457	9.91621011197863	0.912868885876309	1	TRUE
"0304b"	159	4	"anti"	2	640	512	426	1763	35	"left"	">"	">"	TRUE	1330369644.96357	1330369646.3823	1330369647.88862	1330369648.11952	1330369648.51525	1330369648.68054	1330369649.15008	"right"	"left"	FALSE	0.271404027938843	0.0824451446533203	165.576717795451	9.86026773371481	0.907718928791669	1	TRUE
"0304b"	160	4	"pro"	2	640	512	426	1744	35	"right"	"<"	"<"	TRUE	1330369649.15418	1330369649.50303	1330369650.99589	1330369651.2258	1330369651.62149	1330369651.78643	1330369652.0724	"right"	"right"	TRUE	0.294301986694336	0.0907459259033203	172.964175314292	10.4097589658259	0.958304126482277	1	TRUE
"0304b"	161	5	"pro"	2	640	512	426	1637	35	"left"	">"	">"	TRUE	1330369670.20931	1330369672.17146	1330369673.47477	1330369673.70803	1330369674.10505	1330369674.27141	1330369674.71228	"left"	"right"	FALSE	0.32282018661499	0.116159915924072	260.406167240688	5.39771474146775	0.496904138443936	1	TRUE
"0304b"	162	5	"anti"	2	640	512	426	2914	35	"left"	"<"	"<"	TRUE	1330369674.71857	1330369677.4673	1330369680.05635	1330369680.28714	1330369680.68396	1330369680.84821	1330369681.91544	"right"	"right"	TRUE	0.274600982666016	0.129662036895752	269.188785488594	5.31539464140749	0.489325894621082	1	TRUE
"0304b"	163	5	"anti"	2	640	512	426	1946	35	"right"	"<"	"<"	TRUE	1330369681.9234	1330369683.73141	1330369685.44356	1330369685.67422	1330369686.07114	1330369686.23855	1330369686.74305	"left"	"right"	FALSE	0.249797105789185	0.0892000198364258	179.955149130644	10.6298379043221	0.97856420700913	0.764705882352941	TRUE
"0304b"	164	5	"pro"	2	640	512	426	3284	35	"right"	">"	">"	TRUE	1330369686.74696	1330369690.94696	1330369693.9454	1330369694.17684	1330369694.57278	1330369694.73731	1330369695.17533	"right"	"right"	TRUE	0.189275026321411	0.223703861236572	318.36241696657	11.4322351596967	1.05243148899211	1	TRUE
"0304b"	165	5	"anti"	2	640	512	426	3020	35	"right"	"^"	"<"	FALSE	1330369695.18012	1330369696.21629	1330369698.99844	1330369699.22929	1330369699.62761	1330369699.79401	1330369700.36677	"left"	"right"	FALSE	0.290363073348999	0.0926458835601807	170.061346819867	10.112145780101	0.930906379338273	1	TRUE
"0304b"	166	5	"pro"	2	640	512	426	1893	35	"left"	"^"	"^"	TRUE	1330369700.3756	1330369702.63354	1330369704.29017	1330369704.52195	1330369704.91748	1330369705.08295	1330369705.62197	"left"	"left"	TRUE	0.319316864013672	0.0834591388702393	158.162691018015	9.4565430319191	0.870552741854606	1	TRUE
"0304b"	167	5	"pro"	2	640	512	426	3088	35	"right"	"<"	"<"	TRUE	1330369705.6288	1330369708.01219	1330369710.86792	1330369711.09784	1330369711.49452	1330369711.65942	1330369711.96427	"right"	"right"	TRUE	0.241700887680054	0.0958819389343262	181.014187411862	10.825968634165	0.996619657510475	1	TRUE
"0304b"	168	5	"anti"	2	640	512	426	2546	35	"right"	"^"	"<"	FALSE	1330369711.97006	1330369714.37015	1330369716.68267	1330369716.91399	1330369717.30981	1330369717.47498	1330369717.97936	"left"	"right"	FALSE	0.237612962722778	0.089608907699585	174.805509447342	10.2646925536755	0.944949567377294	1	TRUE
"0304b"	169	5	"anti"	2	640	512	426	2267	35	"right"	">"	">"	TRUE	1330369717.98848	1330369727.84023	1330369729.84129	1330369730.07302	1330369730.4708	1330369730.63549	1330369731.20496	"left"	"right"	FALSE	0.250171899795532	0.0904021263122559	167.892709218143	9.84466197739899	0.906282290275501	1	TRUE
"0304b"	170	5	"anti"	2	640	512	426	1845	35	"right"	"<"	"<"	TRUE	1330369731.21025	1330369735.7088	1330369737.34486	1330369737.54406	1330369737.94405	1330369738.10912	1330369738.54744	"left"	"right"	FALSE	0.0168731212615967	0.049901008605957	29.8621429102667	1.61417352435476	0.148597979485002	1	TRUE
"0304b"	171	5	"pro"	2	640	512	426	1658	35	"left"	"^"	"^"	TRUE	1330369738.55714	1330369745.45349	1330369746.86723	1330369747.09745	1330369747.49491	1330369747.65964	1330369748.0624	"left"	"right"	FALSE	0.314605951309204	0.125959873199463	192.615525935017	5.41372169167303	0.498377710164903	1	TRUE
"0304b"	172	5	"pro"	2	640	512	426	2874	35	"left"	"^"	"^"	TRUE	1330369748.069	1330369748.42576	1330369751.06403	1330369751.29601	1330369751.98475	1330369752.14913	1330369752.48785	"left"	"left"	TRUE	0.541105985641479	0.232162952423096	179.924725771137	8.09165492934846	0.744903540449082	1	TRUE
"0304b"	173	5	"anti"	2	640	512	426	1750	35	"right"	">"	">"	TRUE	1330369752.492	1330369757.51498	1330369758.99272	1330369759.22261	1330369759.62004	1330369759.78475	1330369760.28885	"left"	"right"	FALSE	0.239137887954712	0.0853240489959717	177.999922666463	10.3396948955109	0.951854151231028	1	TRUE
"0304b"	174	5	"pro"	2	640	512	426	2133	35	"right"	">"	">"	TRUE	1330369760.2942	1330369766.5188	1330369768.33867	1330369768.57051	1330369768.96778	1330369769.13253	1330369769.54048	"right"	"right"	TRUE	0.281366109848022	0.0909860134124756	168.212572166169	9.95926377454854	0.916832330432169	1	TRUE
"0304b"	175	5	"pro"	2	640	512	426	2750	35	"right"	">"	">"	TRUE	1330369769.54965	1330369769.90101	1330369772.4045	1330369772.6373	1330369773.03512	1330369773.20269	1330369773.57606	"right"	"right"	TRUE	0.30649995803833	0.0824310779571533	170.403684835214	10.1094998856376	0.930662802941277	1	TRUE
"0304b"	176	5	"pro"	2	640	512	426	2650	35	"right"	"<"	"<"	TRUE	1330369773.58388	1330369773.93883	1330369776.34253	1330369776.57406	1330369776.97083	1330369777.13683	1330369777.44248	"right"	"right"	TRUE	0.279974937438965	0.0830399990081787	166.747640158096	9.68228943751412	0.89133455944812	1	TRUE
"0304b"	177	5	"anti"	2	640	512	426	1765	35	"left"	"<"	"<"	TRUE	1330369777.45184	1330369777.82437	1330369779.35081	1330369779.58269	1330369779.9796	1330369780.1448	1330369780.5828	"right"	"left"	FALSE	0.282876968383789	0.088735818862915	160.398172975245	9.67363204039218	0.890537574675103	1	TRUE
"0304b"	178	5	"pro"	2	640	512	426	1700	35	"right"	"<"	"<"	TRUE	1330369780.58989	1330369780.92822	1330369782.3935	1330369782.62439	1330369783.02029	1330369783.18638	1330369783.49428	"right"	"right"	TRUE	0.329018115997314	0.0922060012817383	163.31813676789	9.7326836202771	0.895973759399916	1	TRUE
"0304b"	179	5	"pro"	2	640	512	426	1726	35	"left"	">"	">"	TRUE	1330369783.5016	1330369785.97221	1330369787.45189	1330369787.6823	1330369788.07977	1330369788.24594	1330369788.55073	"left"	"left"	TRUE	0.293818950653076	0.0901188850402832	168.660001704172	10.2629629164922	0.944790340016176	1	TRUE
"0304b"	180	5	"anti"	2	640	512	426	2826	35	"left"	">"	">"	TRUE	1330369788.55762	1330369791.97668	1330369794.55852	1330369794.78939	1330369795.18741	1330369795.35282	1330369795.82786	"right"	"left"	FALSE	0.272733211517334	0.0761489868164062	161.045023659949	9.47778120889652	0.872507891123982	1	TRUE
"0304b"	181	5	"pro"	2	640	512	426	1833	35	"right"	">"	">"	TRUE	1330369795.8355	1330369798.81651	1330369800.31181	1330369800.54241	1330369800.93906	1330369801.10327	1330369801.44665	"right"	"right"	TRUE	0.30662989616394	0.0829331874847412	164.332440623262	9.84402512623769	0.90622366287617	1	TRUE
"0304b"	182	5	"anti"	2	640	512	426	2405	35	"right"	"<"	"<"	TRUE	1330369801.4553	1330369801.80563	1330369803.97963	1330369804.17843	1330369804.57514	1330369804.74059	1330369805.14495	"left"	NA	NA	NA	NA	NA	NA	NA	1	TRUE
"0304b"	183	5	"pro"	2	640	512	426	2515	35	"right"	"<"	"<"	TRUE	1330369805.14834	1330369820.70284	1330369822.95416	1330369823.18608	1330369823.58226	1330369823.7478	1330369824.0857	"right"	"right"	TRUE	0.289151906967163	0.0923740863800049	177.336977159229	10.573731773149	0.973399175119277	1	TRUE
"0304b"	184	5	"anti"	2	640	512	426	1632	35	"left"	"^"	"^"	TRUE	1330369824.08958	1330369828.53103	1330369829.85994	1330369830.09074	1330369830.48717	1330369830.65224	1330369831.12275	"right"	"left"	FALSE	0.373118877410889	0.0830879211425781	173.261397520086	10.1952265563595	0.93855464967587	1	TRUE
"0304b"	185	5	"anti"	2	640	512	426	3483	35	"left"	"<"	"<"	TRUE	1330369831.12776	1330369831.47677	1330369834.71933	1330369834.95034	1330369835.34706	1330369835.5113	1330369835.85192	"right"	"left"	FALSE	0.261093139648438	0.0926170349121094	165.010410626291	9.78127637552399	0.900447123098645	1	TRUE
"0304b"	186	5	"anti"	2	640	512	426	2147	35	"left"	"^"	"^"	TRUE	1330369835.85918	1330369838.46188	1330369840.371	1330369840.60124	1330369840.9988	1330369841.16281	1330369841.47028	"right"	"right"	TRUE	0.519829034805298	0.0333380699157715	149.889228261913	2.18044220289044	0.200727679425211	1	TRUE
"0304b"	187	5	"anti"	2	640	512	426	2109	35	"left"	"^"	"^"	TRUE	1330369841.4792	1330369841.83211	1330369843.67583	1330369843.90718	1330369844.30528	1330369844.47049	1330369844.77607	"right"	"right"	TRUE	0.517786026000977	0.0426290035247803	165.021222036623	4.47942423697817	0.412367927504682	1	TRUE
"0304b"	188	5	"anti"	2	640	512	426	2388	35	"left"	">"	">"	TRUE	1330369844.78254	1330369845.13775	1330369847.27975	1330369847.51112	1330369847.90729	1330369848.07326	1330369848.54577	"right"	"right"	TRUE	0.342830896377563	0.0825650691986084	172.539334027324	10.1957729880524	0.938604953217762	1	TRUE
"0304b"	189	5	"pro"	2	640	512	426	1995	35	"left"	"<"	"<"	TRUE	1330369848.5514	1330369849.68072	1330369851.41512	1330369851.64703	1330369852.04354	1330369852.20888	1330369853.2759	"left"	"right"	FALSE	0.423826932907104	0.0901269912719727	181.811099886981	10.8833377099588	1.00190095386385	1	TRUE
"0304b"	190	5	"anti"	2	640	512	426	2881	35	"right"	"<"	"<"	TRUE	1330369853.28173	1330369853.68813	1330369856.33747	1330369856.56905	1330369856.96559	1330369857.12987	1330369857.63296	"left"	"right"	FALSE	0.273247957229614	0.0826270580291748	181.788644847064	10.7686714462584	0.991344979029741	1	TRUE
"0304b"	191	5	"pro"	2	640	512	426	1631	35	"right"	"<"	"<"	TRUE	1330369857.63894	1330369858.34564	1330369859.73819	1330369859.96944	1330369860.36755	1330369860.53263	1330369860.93637	"right"	"left"	FALSE	0.0765218734741211	0	11.7816468545539	0	0	1	TRUE
"0304b"	192	5	"anti"	2	640	512	426	1675	35	"left"	"^"	"^"	TRUE	1330369860.94226	1330369864.77052	1330369866.21466	1330369866.44542	1330369866.84159	1330369867.00693	1330369867.34539	"right"	"right"	TRUE	0.357022047042847	0.0828819274902344	184.306079112795	10.9488738411961	1.00793409499656	1	TRUE
"0304b"	193	5	"pro"	2	640	512	426	2356	35	"left"	">"	">"	TRUE	1330369867.3501	1330369880.0256	1330369882.14271	1330369882.37319	1330369882.77068	1330369882.93589	1330369883.57145	"left"	"right"	FALSE	0.441173076629639	0.0829980373382568	162.10152728944	9.67793006805709	0.890933243552791	1	TRUE
"0304b"	194	5	"pro"	2	640	512	426	2105	35	"left"	"^"	"^"	TRUE	1330369883.57819	1330369887.57868	1330369889.41719	1330369889.64874	1330369890.0444	1330369890.20996	1330369890.61656	"left"	"left"	TRUE	0.510132074356079	0.0499870777130127	172.439814550366	6.54237881369577	0.602279902422069	1	TRUE
"0304b"	195	5	"anti"	2	640	512	426	3062	35	"right"	"<"	"<"	TRUE	1330369890.62353	1330369894.47497	1330369897.25081	1330369897.5144	1330369897.91058	1330369898.07674	1330369898.64642	"left"	"right"	FALSE	0.271484851837158	0.0846009254455566	190.266082487065	11.4836374399585	1.057163492629	1	TRUE
"0304b"	196	5	"pro"	2	640	512	426	3461	35	"left"	"^"	"^"	TRUE	1330369898.65115	1330369909.10898	1330369912.28634	1330369912.55205	1330369912.94786	1330369913.11297	1330369913.81508	"left"	"left"	TRUE	0.291827917098999	0.0834178924560547	187.58503248066	11.3158227543343	1.04171476742355	1	TRUE
"0304b"	197	5	"anti"	2	640	512	426	1624	35	"left"	"<"	"<"	TRUE	1330369913.82447	1330369915.59084	1330369916.9824	1330369917.21361	1330369917.61193	1330369917.77681	1330369918.38076	"right"	"left"	FALSE	0.278832912445068	0.093224048614502	177.006995462391	10.5635236515738	0.972459433376817	1	TRUE
"0304b"	198	5	"anti"	2	640	512	426	2270	35	"right"	"^"	"^"	TRUE	1330369918.38882	1330369920.53777	1330369922.56885	1330369922.8009	1330369923.1964	1330369923.36223	1330369923.80078	"left"	"right"	FALSE	0.269712924957275	0.0825910568237305	172.818739449278	10.3884945928808	0.956346565658131	1	TRUE
"0304b"	199	5	"pro"	2	640	512	426	1600	35	"right"	"^"	"^"	TRUE	1330369923.8081	1330369929.55005	1330369930.86516	1330369931.09528	1330369931.49571	1330369931.66213	1330369931.96882	"right"	"right"	TRUE	0.29197096824646	0.0831379890441895	166.737622909891	9.92317945185007	0.913510471063784	1	TRUE
"0304b"	200	5	"pro"	2	640	512	426	2592	35	"left"	"^"	"^"	TRUE	1330369931.97576	1330369957.17498	1330369959.53386	1330369959.76512	1330369960.16042	1330369960.32534	1330369975.59786	"left"	NA	NA	NA	NA	NA	NA	NA	0.402985074626866	TRUE
"0304b"	201	6	"pro"	2	640	512	426	1505	35	"left"	"<"	"<"	TRUE	1330369980.24947	1330369981.71966	1330369982.98645	1330369983.21777	1330369983.61357	1330369983.77855	1330369984.21704	"left"	"left"	TRUE	0.304368019104004	0.0805609226226807	135.986285559954	8.32339030008864	0.76623669165472	1	TRUE
"0304b"	202	6	"anti"	2	640	512	426	1782	35	"right"	">"	">"	TRUE	1330369984.22591	1330369984.64358	1330369986.15472	1330369986.41869	1330369986.8149	1330369986.97946	1330369987.48259	"left"	"right"	FALSE	0.248122930526733	0.0889739990234375	185.270391700505	11.012840496758	1.01382275295526	1	TRUE
"0304b"	203	6	"anti"	2	640	512	426	2056	35	"right"	"^"	"^"	TRUE	1330369987.48744	1330369988.03468	1330369989.85354	1330369990.08481	1330369990.48114	1330369990.64656	1330369991.24901	"left"	"right"	FALSE	0.340620994567871	0.0968999862670898	194.259853451311	11.5526800345522	1.06351943261949	1	TRUE
"0304b"	204	6	"anti"	2	640	512	426	2307	35	"left"	"<"	"<"	TRUE	1330369991.25539	1330369991.67987	1330369993.72177	1330369993.95264	1330369994.34857	1330369994.51348	1330369994.98496	"right"	"left"	FALSE	0.257344007492065	0.0932080745697021	166.691142337022	9.95749544241272	0.91666954088168	1	TRUE
"0304b"	205	6	"pro"	2	640	512	426	2028	35	"left"	">"	">"	TRUE	1330369994.99073	1330369995.3492	1330369997.1294	1330369997.36165	1330369997.75973	1330369997.92563	1330369998.4934	"left"	"left"	TRUE	0.305528879165649	0.0792191028594971	169.573707387155	10.0266693230517	0.923037566834903	1	TRUE
"0304b"	206	6	"pro"	2	640	512	426	1509	35	"right"	"<"	"<"	TRUE	1330369998.50324	1330370002.537	1330370003.80983	1330370004.04025	1330370004.43787	1330370004.60212	1330370004.94395	"right"	"right"	TRUE	0.24692177772522	0.0921041965484619	179.452947672074	10.5774495876525	0.97374143059243	1	TRUE
"0304b"	207	6	"anti"	2	640	512	426	2971	35	"right"	"^"	"^"	TRUE	1330370004.95121	1330370005.86599	1330370008.56975	1330370008.83467	1330370009.23077	1330370009.39527	1330370010.16449	"left"	"right"	FALSE	0.292485952377319	0.0901429653167725	171.647790234444	10.1147635251422	0.931147364348905	1	TRUE
"0304b"	208	6	"pro"	2	640	512	426	2350	35	"left"	">"	">"	TRUE	1330370010.17319	1330370010.75994	1330370012.86953	1330370013.10045	1330370013.50047	1330370013.66656	1330370014.10271	"left"	"left"	TRUE	0.276279211044312	0.0901088714599609	180.465897620068	10.9681829032866	1.00971165333779	1	TRUE
"0304b"	209	6	"pro"	2	640	512	426	2902	35	"right"	">"	">"	TRUE	1330370014.10709	1330370014.92781	1330370017.56396	1330370017.82815	1330370018.22459	1330370018.3905	1330370018.86227	"right"	"right"	TRUE	0.319972038269043	0.0836639404296875	174.819363485553	10.4485386137418	0.961874112756057	1	TRUE
"0304b"	210	6	"pro"	2	640	512	426	2723	35	"right"	"<"	"<"	TRUE	1330370018.87195	1330370021.16246	1330370023.65164	1330370023.88269	1330370024.27907	1330370024.44408	1330370024.74082	"right"	"right"	TRUE	0.291642904281616	0.0921659469604492	193.661396790605	11.4138413866801	1.05073819055539	1	TRUE
"0304b"	211	6	"anti"	2	640	512	426	3343	35	"right"	"<"	"<"	TRUE	1330370024.75208	1330370030.60763	1330370033.70128	1330370033.93223	1330370034.3307	1330370034.49565	1330370035.03077	"left"	"right"	FALSE	0.261911153793335	0.0897989273071289	187.510815603317	11.1753112521606	1.02877952533069	1	TRUE
"0304b"	212	6	"anti"	2	640	512	426	2433	35	"left"	"<"	"<"	TRUE	1330370035.04029	1330370040.62508	1330370042.81991	1330370043.05027	1330370043.44804	1330370043.61385	1330370044.1204	"right"	"left"	FALSE	0.26426100730896	0.0831019878387451	176.684963960626	10.446816076139	0.961715538969845	1	TRUE
"0304b"	213	6	"pro"	2	640	512	426	2304	35	"left"	"^"	"^"	TRUE	1330370044.12832	1330370047.47412	1330370049.49518	1330370049.72775	1330370050.12312	1330370050.28898	1330370050.62823	"left"	NA	NA	NA	NA	NA	NA	NA	0.455882352941176	TRUE
"0304b"	214	6	"anti"	2	640	512	426	3071	35	"left"	">"	">"	TRUE	1330370050.63545	1330370051.15624	1330370053.99101	1330370054.22175	1330370054.61995	1330370054.78466	1330370055.16001	"right"	NA	NA	NA	NA	NA	NA	NA	0.567164179104478	TRUE
"0304b"	215	6	"pro"	2	640	512	426	1842	35	"left"	">"	">"	TRUE	1330370055.16711	1330370064.84556	1330370066.42115	1330370066.68522	1330370067.08136	1330370067.24625	1330370067.58517	"left"	NA	NA	NA	NA	NA	NA	NA	0.558823529411765	TRUE
"0304b"	216	6	"anti"	2	640	512	426	3005	35	"left"	"^"	"^"	TRUE	1330370067.59353	1330370072.93967	1330370075.70392	1330370075.93509	1330370076.33175	1330370076.49808	1330370076.93407	"right"	"left"	FALSE	0.290124893188477	0.0908670425415039	173.537643043374	10.1734349487476	0.93654855255434	1	TRUE
"0304b"	217	6	"anti"	2	640	512	426	1863	35	"left"	">"	">"	TRUE	1330370076.93979	1330370082.86713	1330370084.49689	1330370084.72772	1330370085.12276	1330370085.28758	1330370085.69143	"right"	NA	NA	NA	NA	NA	NA	NA	0.776119402985075	TRUE
"0304b"	218	6	"anti"	2	640	512	426	1895	35	"left"	"^"	"^"	TRUE	1330370085.69574	1330370089.96189	1330370091.6027	1330370091.83337	1330370092.23053	1330370092.39612	1330370092.9677	"right"	"left"	FALSE	0.238339900970459	0.0906729698181152	171.984747670745	10.2468233210008	0.94330455720315	0.691176470588235	TRUE
"0304b"	219	6	"pro"	2	640	512	426	2905	35	"right"	"^"	"^"	TRUE	1330370092.97641	1330370098.9258	1330370101.49461	1330370101.72691	1330370102.12257	1330370102.28886	1330370102.59507	"right"	"right"	TRUE	0.286559104919434	0.0931220054626465	192.190284503322	11.4406387593281	1.05320510961392	1	TRUE
"0304b"	220	6	"anti"	2	640	512	426	3262	35	"left"	">"	">"	TRUE	1330370102.60387	1330370111.23633	1330370114.26393	1330370114.49419	1330370114.89174	1330370115.05581	1330370115.56045	"right"	"left"	FALSE	0.239372968673706	0.0890288352966309	171.138193085018	10.1228736354202	0.931893966856337	1	TRUE
"0304b"	221	6	"pro"	2	640	512	426	2265	35	"left"	"^"	"^"	TRUE	1330370115.56871	1330370115.90073	1330370117.93065	1330370118.16014	1330370118.55641	1330370118.72153	1330370119.09581	"left"	"left"	TRUE	0.230798006057739	0.0903341770172119	172.150170793544	10.3187178726511	0.949923043351024	1	TRUE
"0304b"	222	6	"pro"	2	640	512	426	2091	35	"right"	">"	">"	TRUE	1330370119.1049	1330370120.83203	1330370122.68542	1330370122.91698	1330370123.31246	1330370123.47768	1330370124.0137	"right"	"right"	TRUE	0.28784704208374	0.0908279418945312	186.482439066558	11.2269057955739	1.03352922837563	1	TRUE
"0304b"	223	6	"anti"	2	640	512	426	2957	35	"right"	"^"	"^"	TRUE	1330370124.01863	1330370124.40977	1330370127.11188	1330370127.34362	1330370127.74167	1330370127.90656	1330370128.27818	"left"	"right"	FALSE	0.260217905044556	0.0909860134124756	178.433897558962	10.4797467508589	0.964747079044452	1	TRUE
"0304b"	224	6	"pro"	2	640	512	426	1677	35	"right"	"^"	"^"	TRUE	1330370128.28506	1330370137.92998	1330370139.37464	1330370139.60658	1330370140.00301	1330370140.16714	1330370140.37766	"right"	"right"	TRUE	0.281396865844727	0.0886480808258057	183.381030065419	10.7810391106013	0.992483524486332	1	TRUE
"0304b"	225	6	"pro"	2	640	512	426	2305	35	"left"	"^"	"^"	TRUE	1330370140.38642	1330370140.74284	1330370142.84455	1330370143.04222	1330370143.43874	1330370143.60341	1330370143.78034	"left"	"left"	TRUE	0.271923065185547	0.0847210884094238	185.557913468066	10.8186029091569	0.995941581803541	1	TRUE
"0304b"	226	6	"pro"	2	640	512	426	1630	35	"right"	">"	">"	TRUE	1330370143.78901	1330370161.55951	1330370162.92111	1330370163.15312	1330370163.55039	1330370163.71588	1330370164.45061	"right"	"right"	TRUE	0.282339811325073	0.0922400951385498	175.580941481107	10.5113677281839	0.967658050677262	1	TRUE
"0304b"	227	6	"pro"	2	640	512	426	1561	35	"left"	"^"	"^"	TRUE	1330370164.4575	1330370164.8053	1330370166.12788	1330370166.3591	1330370166.75558	1330370166.92029	1330370167.29237	"left"	"left"	TRUE	0.256434202194214	0.0662679672241211	181.970012297939	10.1524063629449	0.93461269788038	1	TRUE
"0304b"	228	6	"anti"	2	640	512	426	2312	35	"right"	">"	">"	TRUE	1330370167.29578	1330370168.67905	1330370170.68691	1330370170.9508	1330370171.34635	1330370171.51289	1330370172.051	"left"	"right"	FALSE	0.286421060562134	0.0926311016082764	177.114011657143	10.5346867515961	0.969804759014591	1	TRUE
"0304b"	229	6	"anti"	2	640	512	426	3103	35	"right"	"<"	"<"	TRUE	1330370172.0601	1330370172.3789	1330370175.21635	1330370175.48054	1330370175.87729	1330370176.04377	1330370176.45006	"left"	"right"	FALSE	0.281491041183472	0.0903530120849609	178.99138326221	10.4062808810889	0.957983940110364	1	TRUE
"0304b"	230	6	"anti"	2	640	512	426	1934	35	"right"	">"	">"	TRUE	1330370176.45873	1330370176.98996	1330370178.68838	1330370178.92166	1330370179.31795	1330370179.48307	1330370179.95278	"left"	"right"	FALSE	0.276505947113037	0.0934641361236572	183.312682679903	10.9331138464048	1.00648325755725	1	TRUE
"0304b"	231	6	"anti"	2	640	512	426	1746	35	"left"	">"	">"	TRUE	1330370179.96214	1330370182.31912	1330370183.8476	1330370184.04693	1330370184.44293	1330370184.60741	1330370185.01146	"right"	"left"	FALSE	0.237888097763062	0.0761680603027344	175.4644155848	10.3539893887155	0.953170077168313	1	TRUE
"0304b"	232	6	"anti"	2	640	512	426	3450	35	"right"	">"	">"	TRUE	1330370185.01589	1330370185.35661	1330370188.56986	1330370188.80024	1330370189.19879	1330370189.3638	1330370190.03142	"left"	NA	NA	NA	NA	NA	NA	NA	1	TRUE
"0304b"	233	6	"pro"	2	640	512	426	3035	35	"left"	">"	">"	TRUE	1330370190.03828	1330370191.02473	1330370193.76328	1330370193.99538	1330370194.39167	1330370194.55645	1330370194.89462	"left"	NA	NA	NA	NA	NA	NA	NA	0.235294117647059	TRUE
"0304b"	234	6	"anti"	2	640	512	426	3104	35	"left"	"^"	"^"	TRUE	1330370194.90206	1330370195.25868	1330370198.12875	1330370198.36073	1330370198.75622	1330370198.92209	1330370199.49283	"right"	"left"	FALSE	0.260159015655518	0.0905859470367432	162.063346367925	9.94034236318645	0.915090458536126	1	TRUE
"0304b"	235	6	"pro"	2	640	512	426	2631	35	"right"	"^"	"^"	TRUE	1330370199.50075	1330370228.24865	1330370230.62309	1330370230.85562	1330370231.25268	1330370231.41789	1330370231.82258	"right"	"right"	TRUE	0.337929964065552	0.08001708984375	179.345140140085	10.4971090952358	0.966345425972212	1	TRUE
"0304b"	236	6	"pro"	2	640	512	426	3470	35	"left"	"^"	"^"	TRUE	1330370231.82884	1330370241.078	1330370244.31114	1330370244.54277	1330370244.93877	1330370245.10359	1330370245.40887	"left"	"left"	TRUE	0.217957019805908	0.0866210460662842	162.967430900528	9.60433314106916	0.884158039721417	1	TRUE
"0304b"	237	6	"pro"	2	640	512	426	2180	35	"right"	"^"	"^"	TRUE	1330370245.41776	1330370246.26579	1330370248.24074	1330370248.44109	1330370248.83759	1330370249.00276	1330370249.31092	"right"	"right"	TRUE	0.33769702911377	0.0910758972167969	169.276974803264	10.0868345167609	0.928576268892405	1	TRUE
"0304b"	238	6	"anti"	2	640	512	426	2061	35	"left"	"^"	"^"	TRUE	1330370249.31852	1330370253.16983	1330370254.95647	1330370255.18675	1330370255.58227	1330370255.74756	1330370256.15206	"right"	"left"	FALSE	0.240447044372559	0.0969059467315674	167.800603679333	9.95461187143778	0.916404084402489	1	TRUE
"0304b"	239	6	"pro"	2	640	512	426	2937	35	"right"	"^"	"^"	TRUE	1330370256.15809	1330370261.19503	1330370263.6781	1330370263.87812	1330370264.27461	1330370264.43951	1330370264.71455	"right"	"right"	TRUE	0.321643114089966	0.0924239158630371	170.488049317702	10.1502567451395	0.934414807840848	1	TRUE
"0304b"	240	6	"anti"	2	640	512	426	1984	35	"right"	">"	">"	TRUE	1330370264.72391	1330370272.70829	1330370274.45216	1330370274.68563	1330370275.08432	1330370275.25031	1330370275.93261	"left"	"right"	FALSE	0.32128119468689	0.0847678184509277	189.745081607057	11.1514419400157	1.02658215837918	1	TRUE
"0304b"	241	7	"pro"	2	640	512	426	1757	35	"left"	">"	">"	TRUE	1330370297.11419	1330370297.87389	1330370299.39912	1330370299.63072	1330370300.02655	1330370300.19208	1330370300.59775	"left"	"left"	TRUE	0.270899057388306	0.0814249515533447	177.264425000421	10.3601612300381	0.953738246040123	1	TRUE
"0304b"	242	7	"anti"	2	640	512	426	2268	35	"left"	">"	">"	TRUE	1330370300.60481	1330370301.17875	1330370303.17276	1330370303.40485	1330370303.80164	1330370303.96759	1330370304.40645	"right"	"left"	FALSE	0.270740032196045	0.225202083587646	171.037834500949	10.8650574479335	1.00021810504962	1	TRUE
"0304b"	243	7	"pro"	2	640	512	426	2693	35	"right"	">"	">"	TRUE	1330370304.41462	1330370307.99199	1330370310.44742	1330370310.68068	1330370311.077	1330370311.24108	1330370311.57928	"right"	"right"	TRUE	0.308089971542358	0.0956189632415771	183.93889232573	11.0134335159762	1.0138773452629	1	TRUE
"0304b"	244	7	"anti"	2	640	512	426	2675	35	"right"	"^"	">"	FALSE	1330370311.58709	1330370315.50962	1330370317.94545	1330370318.17767	1330370318.57371	1330370318.73841	1330370319.54065	"left"	"right"	FALSE	0.289232015609741	0.0830998420715332	174.670609568823	10.3645531954103	0.954142562658146	1	TRUE
"0304b"	245	7	"anti"	2	640	512	426	1662	35	"right"	"<"	"<"	TRUE	1330370319.54566	1330370319.95353	1330370321.38259	1330370321.61447	1330370322.01039	1330370322.17596	1330370322.55081	"left"	"right"	FALSE	0.305383205413818	0.0828568935394287	180.88641242071	10.5789222976036	0.973877005683825	1	TRUE
"0304b"	246	7	"anti"	2	640	512	426	3317	35	"right"	">"	">"	TRUE	1330370322.55968	1330370326.89245	1330370329.97631	1330370330.2077	1330370330.60495	1330370330.76941	1330370331.27474	"left"	"right"	FALSE	0.244948148727417	0.0935249328613281	177.655683550774	10.8267858453677	0.996694888538431	1	TRUE
"0304b"	247	7	"pro"	2	640	512	426	2763	35	"left"	">"	">"	TRUE	1330370331.28265	1330370337.23429	1330370339.72959	1330370339.96025	1330370340.35586	1330370340.52023	1330370340.99041	"left"	"left"	TRUE	0.278865098953247	0.0830590724945068	173.353349611739	10.2999062662038	0.948191279902574	1	TRUE
"0304b"	248	7	"anti"	2	640	512	426	1910	35	"right"	"<"	"<"	TRUE	1330370340.99383	1330370344.27292	1330370345.70776	1330370345.93983	1330370346.33792	1330370346.50303	1330370347.10359	"left"	"right"	FALSE	0.272694110870361	0.0864839553833008	185.329351919287	11.049036219894	1.01715486765226	1	TRUE
"0304b"	249	7	"pro"	2	640	512	426	2011	35	"left"	"^"	"^"	TRUE	1330370347.11137	1330370357.02214	1330370358.76538	1330370359.02967	1330370359.42661	1330370359.67644	1330370360.08064	"left"	"left"	TRUE	0.271651029586792	0.241888046264648	194.17861162136	11.5554777494699	1.06377698534085	1	TRUE
"0304b"	250	7	"pro"	2	640	512	426	3198	35	"right"	"<"	"<"	TRUE	1330370360.08407	1330370360.41604	1330370363.37787	1330370363.60992	1330370364.00522	1330370364.17014	1330370364.57525	"right"	"right"	TRUE	0.251364231109619	0.0909469127655029	191.389425482026	11.4636642609418	1.05532479685002	1	TRUE
"0304b"	251	7	"anti"	2	640	512	426	2813	35	"left"	"^"	"^"	TRUE	1330370364.58311	1330370369.55547	1330370372.13445	1330370372.3669	1330370372.76222	1330370372.92807	1330370373.46389	"right"	"left"	FALSE	0.242942094802856	0.0945780277252197	166.914703923749	10.0271822935303	0.923084789996162	1	TRUE
"0304b"	252	7	"pro"	2	640	512	426	1739	35	"right"	"<"	"<"	TRUE	1330370373.47273	1330370380.96678	1330370382.40773	1330370382.63819	1330370383.03556	1330370383.20163	1330370383.64015	"right"	"right"	TRUE	0.296818017959595	0.0833940505981445	183.278865208276	10.7195601250279	0.986823877057378	1	TRUE
"0304b"	253	7	"anti"	2	640	512	426	2063	35	"left"	"<"	"<"	TRUE	1330370383.64955	1330370384.01427	1330370385.84214	1330370386.07386	1330370386.4721	1330370386.63779	1330370387.04408	"right"	"right"	TRUE	0.231484889984131	0.132377147674561	192.698947369118	4.94005304458537	0.454772606475226	1	TRUE
"0304b"	254	7	"pro"	2	640	512	426	2540	35	"right"	"^"	"^"	TRUE	1330370387.05219	1330370387.40897	1330370389.71276	1330370389.91173	1330370390.34094	1330370390.50586	1330370390.74626	"right"	"right"	TRUE	0.271527051925659	0.0890719890594482	199.946993363532	11.7947811834578	1.08580683915637	1	TRUE
"0304b"	255	7	"pro"	2	640	512	426	1639	35	"left"	">"	">"	TRUE	1330370390.75425	1330370391.09373	1330370392.49057	1330370392.72145	1330370393.11968	1330370393.28433	1330370394.38182	"left"	NA	NA	NA	NA	NA	NA	NA	0.597014925373134	TRUE
"0304b"	256	7	"pro"	2	640	512	426	1657	35	"right"	"<"	"<"	TRUE	1330370394.38972	1330370394.9415	1330370396.35792	1330370396.58837	1330370396.98761	1330370397.15253	1330370397.49435	"right"	"right"	TRUE	0.239305019378662	0.0761699676513672	161.789924558087	9.40481976586402	0.865791188829368	1	TRUE
"0304b"	257	7	"anti"	2	640	512	426	2565	35	"left"	"^"	"^"	TRUE	1330370397.50134	1330370398.92158	1330370401.25337	1330370401.4851	1330370401.88153	1330370402.0466	1330370402.41833	"right"	"left"	FALSE	0.258486986160278	0.0906980037689209	189.493189488002	11.2488606588229	1.03555035452436	1	TRUE
"0304b"	258	7	"pro"	2	640	512	426	3288	35	"right"	">"	"^"	FALSE	1330370402.42391	1330370402.79707	1330370405.84753	1330370406.08018	1330370406.47625	1330370406.64229	1330370406.84879	"right"	"right"	TRUE	0.245281934738159	0.0829520225524902	187.046493819321	11.1102596061438	1.02279098505642	1	TRUE
"0304b"	259	7	"anti"	2	640	512	426	2288	35	"right"	"^"	"^"	TRUE	1330370406.8568	1330370409.31359	1330370411.27024	1330370411.50202	1330370411.89839	1330370412.06311	1330370412.40234	"left"	"right"	FALSE	0.308894157409668	0.0947518348693848	137.547302558456	8.09135798652435	0.744876204414252	1	TRUE
"0304b"	260	7	"pro"	2	640	512	426	1523	35	"left"	">"	">"	TRUE	1330370412.4085	1330370417.72071	1330370419.00264	1330370419.235	1330370419.63176	1330370419.7965	1330370420.16619	"left"	"left"	TRUE	0.295370101928711	0.0829329490661621	170.769311154394	10.0533546964367	0.925494175437993	1	TRUE
"0304b"	261	7	"anti"	2	640	512	426	1582	35	"left"	"^"	"^"	TRUE	1330370420.17036	1330370420.70873	1330370422.01148	1330370422.27542	1330370422.67163	1330370422.83668	1330370423.27505	"right"	"left"	FALSE	0.271256923675537	0.0880980491638184	165.671837982418	9.90790259165812	0.9121041101471	1	TRUE
"0304b"	262	7	"pro"	2	640	512	426	1871	35	"left"	">"	">"	TRUE	1330370423.28206	1330370425.23314	1330370426.86791	1330370427.09766	1330370427.49487	1330370427.6608	1330370428.06439	"left"	NA	NA	NA	NA	NA	NA	NA	0.602941176470588	TRUE
"0304b"	263	7	"anti"	2	640	512	426	1526	35	"right"	"^"	"^"	TRUE	1330370428.0722	1330370429.27443	1330370430.56866	1330370430.79997	1330370431.19503	1330370431.35919	1330370431.831	"left"	"right"	FALSE	0.302465200424194	0.0900368690490723	177.023491632273	10.5365465908288	0.969975972547693	1	TRUE
"0304b"	264	7	"anti"	2	640	512	426	2166	35	"left"	"^"	"^"	TRUE	1330370431.83982	1330370432.42261	1330370434.33462	1330370434.56528	1330370434.96181	1330370435.12572	1330370435.46722	"right"	"left"	FALSE	0.279689073562622	0.0829269886016846	176.600412388286	10.600134063896	0.97582972363193	1	TRUE
"0304b"	265	7	"anti"	2	640	512	426	1552	35	"right"	"^"	"^"	TRUE	1330370435.47566	1330370439.74162	1330370441.00663	1330370441.27186	1330370441.66973	1330370441.83435	1330370442.20646	"left"	"left"	TRUE	0.386441946029663	0.175024032592773	187.427070209754	6.05334094796653	0.557259935459056	1	TRUE
"0304b"	266	7	"anti"	2	640	512	426	3112	35	"left"	"^"	"^"	TRUE	1330370442.21596	1330370463.63737	1330370466.51634	1330370466.74911	1330370467.14518	1330370467.31049	1330370467.7496	"right"	"left"	FALSE	0.250971078872681	0.0903198719024658	158.295328576407	9.35400759731473	0.861113509840243	1	TRUE
"0304b"	267	7	"pro"	2	640	512	426	2938	35	"left"	"<"	">"	FALSE	1330370467.75463	1330370468.18613	1330370470.88217	1330370471.08091	1330370471.47882	1330370471.64485	1330370472.97616	"left"	"left"	TRUE	0.306030988693237	0.0788428783416748	156.4117739533	9.11531978493312	0.839140329068503	1	TRUE
"0304b"	268	7	"pro"	2	640	512	426	1791	35	"right"	">"	">"	TRUE	1330370472.98371	1330370473.37447	1330370474.91592	1330370475.14662	1330370475.54251	1330370475.70723	1330370476.11349	"right"	NA	NA	NA	NA	NA	NA	NA	1	TRUE
"0304b"	269	7	"anti"	2	640	512	426	2673	35	"left"	">"	">"	TRUE	1330370476.12095	1330370479.24142	1330370481.59234	1330370481.85622	1330370482.25244	1330370482.41851	1330370482.75587	"right"	"left"	FALSE	0.00768089294433594	0.0101749897003174	56.0808300274542	0.230175322634191	0.0211895359171013	1	TRUE
"0304b"	270	7	"anti"	2	640	512	426	3018	35	"left"	"<"	"<"	TRUE	1330370482.76137	1330370487.85772	1330370490.61974	1330370490.85177	1330370491.24842	1330370491.41473	1330370491.88422	"right"	"left"	FALSE	0.238687992095947	0.0875680446624756	184.532865690839	10.9623621745755	1.00917580727628	1	TRUE
"0304b"	271	7	"anti"	2	640	512	426	3060	35	"right"	"<"	"<"	TRUE	1330370491.89128	1330370492.3156	1330370495.11515	1330370495.34882	1330370495.74447	1330370495.90917	1330370496.34943	"left"	"right"	FALSE	0.211797952651978	0.0824220180511475	161.29164201361	9.53935585194466	0.878176344612043	0.955882352941177	TRUE
"0304b"	272	7	"anti"	2	640	512	426	2487	35	"right"	">"	">"	TRUE	1330370496.357	1330370501.46154	1330370503.71697	1330370503.94719	1330370504.34397	1330370504.50877	1330370505.04762	"left"	"right"	FALSE	0.261503934860229	0.0835709571838379	197.594116630193	11.6631879391235	1.073692596216	1	TRUE
"0304b"	273	7	"pro"	2	640	512	426	3484	35	"left"	"<"	"<"	TRUE	1330370505.05558	1330370512.00349	1330370515.25067	1330370515.48235	1330370515.88083	1330370516.04663	1330370516.5523	"left"	"left"	TRUE	0.313764810562134	0.0920660495758057	166.684055746913	10.0797533245715	0.92792438677699	1	TRUE
"0304b"	274	7	"pro"	2	640	512	426	2491	35	"left"	"<"	"<"	TRUE	1330370516.55952	1330370525.59006	1330370527.84495	1330370528.07668	1330370528.47257	1330370528.63744	1330370529.2753	"left"	"left"	TRUE	0.25284218788147	0.0918920040130615	172.861455111102	10.348268135431	0.95264338863986	1	TRUE
"0304b"	275	7	"pro"	2	640	512	426	3432	35	"right"	"<"	"<"	TRUE	1330370529.28493	1330370543.51849	1330370546.68123	1330370546.94604	1330370547.34271	1330370547.50759	1330370547.91289	"right"	"right"	TRUE	0.250454902648926	0.0862481594085693	179.422237120906	10.6311328569016	0.978683418069113	1	TRUE
"0304b"	276	7	"pro"	2	640	512	426	3246	35	"left"	"^"	"^"	TRUE	1330370547.91801	1330370553.83667	1330370556.83316	1330370557.06359	1330370557.46119	1330370557.62628	1330370558.02977	"left"	"left"	TRUE	0.25010085105896	0.0919680595397949	175.580405630631	10.461254855925	0.963044747676371	1	TRUE
"0304b"	277	7	"pro"	2	640	512	426	1942	35	"right"	">"	">"	TRUE	1330370558.03611	1330370564.88326	1330370566.51581	1330370566.77982	1330370567.17606	1330370567.34182	1330370567.71473	"right"	"right"	TRUE	0.278223991394043	0.092534065246582	182.826511027611	10.7222791202242	0.987074182979451	1	TRUE
"0304b"	278	7	"anti"	2	640	512	426	3137	35	"left"	"^"	"^"	TRUE	1330370567.72196	1330370568.10982	1330370571.00875	1330370571.2408	1330370571.6364	1330370571.80346	1330370572.32287	"right"	"left"	FALSE	0.27126407623291	0.0781137943267822	184.391390786899	11.0239427564238	1.01484480747986	1	TRUE
"0304b"	279	7	"pro"	2	640	512	426	2872	35	"right"	">"	">"	TRUE	1330370572.3305	1330370572.6948	1330370575.30131	1330370575.56546	1330370575.96165	1330370576.12514	1330370576.46339	"right"	"right"	TRUE	0.323969841003418	0.0834641456604004	175.38167073895	10.3195984135743	0.950004104401818	1	TRUE
"0304b"	280	7	"anti"	2	640	512	426	3314	35	"right"	"^"	"<"	FALSE	1330370576.47093	1330370576.87829	1330370579.95715	1330370580.18748	1330370580.58494	1330370580.74939	1330370581.36765	"left"	"right"	FALSE	0.342974901199341	0.0822739601135254	154.323098477264	9.0962855089894	0.837388067057313	1	TRUE
"0304b"	281	8	"anti"	2	640	512	426	2815	35	"left"	"<"	"<"	TRUE	1330370615.33013	1330370616.0871	1330370618.66745	1330370618.89845	1330370619.29529	1330370619.46016	1330370620.06334	"right"	"left"	FALSE	0.305425882339478	0.0874800682067871	167.41925252171	9.84245715773099	0.906079318449455	1	TRUE
"0304b"	282	8	"anti"	2	640	512	426	2720	35	"left"	">"	">"	TRUE	1330370620.07228	1330370620.44501	1330370622.92905	1330370623.15914	1330370623.55617	1330370623.72202	1330370624.12515	"right"	"left"	FALSE	0.282297134399414	0.0912258625030518	171.144367802982	10.1207819822933	0.931701412943299	1	TRUE
"0304b"	283	8	"pro"	2	640	512	426	1644	35	"left"	">"	">"	TRUE	1330370624.13013	1330370624.50406	1330370625.90651	1330370626.13901	1330370626.53576	1330370626.70059	1330370627.2388	"left"	NA	NA	NA	NA	NA	NA	NA	0.529411764705882	TRUE
"0304b"	284	8	"pro"	2	640	512	426	1860	35	"left"	">"	">"	TRUE	1330370627.24393	1330370628.16431	1330370629.74062	1330370629.97163	1330370630.36867	1330370630.53407	1330370630.90605	"left"	NA	NA	NA	NA	NA	NA	NA	0.470588235294118	TRUE
"0304b"	285	8	"anti"	2	640	512	426	1546	35	"right"	"<"	"<"	TRUE	1330370630.91224	1330370631.46916	1330370632.71823	1330370632.95011	1330370633.50188	1330370633.6662	1330370634.10325	"left"	"left"	TRUE	0.635161876678467	0.0735960006713867	171.112720623152	10.036979565978	0.923986709689573	1	TRUE
"0304b"	286	8	"pro"	2	640	512	426	2489	35	"right"	"<"	"<"	TRUE	1330370634.1076	1330370636.45243	1330370638.62881	1330370638.85974	1330370639.25414	1330370639.41942	1330370639.98834	"right"	"right"	TRUE	0.244086027145386	0.0925250053405762	170.972850816245	10.0250313099068	0.922886774221816	1	TRUE
"0304b"	287	8	"pro"	2	640	512	426	3355	35	"right"	">"	">"	TRUE	1330370639.99294	1330370640.36532	1330370643.48507	1330370643.7167	1330370644.11296	1330370644.27831	1330370644.58335	"right"	"right"	TRUE	0.270992040634155	0.0887589454650879	194.539659947365	11.600091466721	1.06788404579055	1	TRUE
"0304b"	288	8	"pro"	2	640	512	426	1905	35	"right"	"^"	"^"	TRUE	1330370644.59094	1330370650.50872	1330370652.17759	1330370652.40905	1330370652.80465	1330370652.96995	1330370653.34176	"right"	"right"	TRUE	0.249015092849731	0.0913879871368408	182.382576681868	10.8728736412127	1.00093765007438	1	TRUE
"0304b"	289	8	"pro"	2	640	512	426	3208	35	"right"	"^"	"^"	TRUE	1330370653.34697	1330370653.92815	1330370656.87196	1330370657.10241	1330370657.50142	1330370657.66623	1330370658.03681	"right"	NA	NA	NA	NA	NA	NA	NA	0.264705882352941	TRUE
"0304b"	290	8	"anti"	2	640	512	426	1983	35	"right"	"<"	"<"	TRUE	1330370658.04514	1330370660.94298	1330370662.65582	1330370662.91961	1330370663.3171	1330370663.48263	1330370664.05464	"left"	"right"	FALSE	0.330126047134399	0.0906150341033936	176.347794291962	10.5518429451748	0.971384128061959	1	TRUE
"0304b"	291	8	"pro"	2	640	512	426	2158	35	"left"	">"	">"	TRUE	1330370664.06266	1330370667.70653	1330370669.62976	1330370669.86092	1330370670.25626	1330370670.42186	1330370670.82768	"left"	NA	NA	NA	NA	NA	NA	NA	0.676470588235294	TRUE
"0304b"	292	8	"anti"	2	640	512	426	1835	35	"right"	"<"	"<"	TRUE	1330370670.83633	1330370674.49187	1330370676.07157	1330370676.30321	1330370676.70113	1330370676.86695	1330370677.37095	"left"	NA	NA	NA	NA	NA	NA	NA	0.426470588235294	TRUE
"0304b"	293	8	"pro"	2	640	512	426	3295	35	"right"	"<"	"<"	TRUE	1330370677.37674	1330370689.58595	1330370692.63709	1330370692.86968	1330370693.2674	1330370693.43346	1330370693.96999	"right"	"right"	TRUE	0.277574062347412	0.082787036895752	173.498913958193	10.1951696779223	0.93854941354685	1	TRUE
"0304b"	294	8	"anti"	2	640	512	426	1892	35	"right"	">"	">"	TRUE	1330370693.9774	1330370700.76657	1330370702.42176	1330370702.65254	1330370703.04857	1330370703.2134	1330370703.74992	"left"	"right"	FALSE	0.263276100158691	0.083420991897583	166.008785111608	9.82923449457424	0.904862063303798	1	TRUE
"0304b"	295	8	"pro"	2	640	512	426	2776	35	"right"	">"	">"	TRUE	1330370703.75519	1330370704.11177	1330370706.64976	1330370706.88081	1330370707.27626	1330370707.44163	1330370707.84653	"right"	"right"	TRUE	0.23858904838562	0.0883748531341553	170.870623375605	10.0344595211547	0.923754718789403	1	TRUE
"0304b"	296	8	"anti"	2	640	512	426	1544	35	"left"	"<"	"<"	TRUE	1330370707.85514	1330370708.24377	1330370709.55514	1330370709.78661	1330370710.18272	1330370710.34768	1330370710.78529	"right"	NA	NA	NA	NA	NA	NA	NA	0.588235294117647	TRUE
"0304b"	297	8	"pro"	2	640	512	426	3075	35	"left"	"<"	"<"	TRUE	1330370710.79334	1330370715.21641	1330370718.04976	1330370718.28099	1330370718.67769	1330370718.84309	1330370719.11819	"left"	NA	NA	NA	NA	NA	NA	NA	0.432835820895522	TRUE
"0304b"	298	8	"pro"	2	640	512	426	2074	35	"right"	">"	">"	TRUE	1330370719.12701	1330370736.24899	1330370738.04874	1330370738.27993	1330370738.67753	1330370738.8424	1330370739.64504	"right"	"right"	TRUE	0.244113922119141	0.0946409702301025	204.091300661107	12.1905650236108	1.12224200431809	1	TRUE
"0304b"	299	8	"anti"	2	640	512	426	2970	35	"right"	"<"	"<"	TRUE	1330370739.65291	1330370742.74727	1330370745.41906	1330370745.64971	1330370746.04629	1330370746.21117	1330370746.65017	"left"	"right"	FALSE	0.26118803024292	0.0912659168243408	192.65333323332	11.4726651865851	1.05615340625533	1	TRUE
"0304b"	300	8	"anti"	2	640	512	426	2212	35	"left"	"<"	"<"	TRUE	1330370746.65809	1330370748.9934	1330370750.93473	1330370751.20046	1330370751.59692	1330370751.76206	1330370752.13212	"right"	"left"	FALSE	0.254786014556885	0.074962854385376	180.200132349053	9.33802402508812	0.859642090254932	1	TRUE
"0304b"	301	8	"anti"	2	640	512	426	2744	35	"right"	">"	">"	TRUE	1330370752.13622	1330370754.31377	1330370756.82196	1330370757.05386	1330370757.45169	1330370757.61638	1330370758.08859	"left"	"right"	FALSE	0.220552921295166	0.0912461280822754	171.655169312314	10.2162479617428	0.94048984333304	1	TRUE
"0304b"	302	8	"pro"	2	640	512	426	1517	35	"right"	"<"	"<"	TRUE	1330370758.09559	1330370764.40127	1330370765.68249	1330370765.91313	1330370766.30933	1330370766.47474	1330370766.74687	"right"	"right"	TRUE	0.243056058883667	0.0952370166778564	180.216105150187	10.6070225012504	0.976463861075789	1	TRUE
"0304b"	303	8	"anti"	2	640	512	426	2596	35	"right"	">"	">"	TRUE	1330370766.75381	1330370767.28482	1330370769.64536	1330370769.87688	1330370770.27387	1330370770.43944	1330370770.84476	"left"	"right"	FALSE	0.254262924194336	0.0840461254119873	170.270564379401	10.1684283203985	0.936087651142265	1	TRUE
"0304b"	304	8	"pro"	2	640	512	426	3131	35	"left"	"^"	"^"	TRUE	1330370770.85364	1330370771.25195	1330370774.10766	1330370774.37472	1330370774.77115	1330370774.93616	1330370775.27738	"left"	NA	NA	NA	NA	NA	NA	NA	0.447761194029851	TRUE
"0304b"	305	8	"anti"	2	640	512	426	2474	35	"right"	">"	">"	TRUE	1330370775.28617	1330370776.86104	1330370779.10126	1330370779.33488	1330370779.73068	1330370779.89557	1330370780.30007	"left"	"right"	FALSE	0.291998863220215	0.0994789600372314	185.272326845148	11.1850871368768	1.0296794761071	1	TRUE
"0304b"	306	8	"pro"	2	640	512	426	1676	35	"left"	">"	">"	TRUE	1330370780.30703	1330370780.66346	1330370782.07823	1330370782.31166	1330370782.7071	1330370782.8723	1330370783.31224	"left"	NA	NA	NA	NA	NA	NA	NA	0.462686567164179	TRUE
"0304b"	307	8	"pro"	2	640	512	426	2578	35	"left"	"<"	"<"	TRUE	1330370783.32115	1330370783.87335	1330370786.21371	1330370786.4444	1330370786.84115	1330370787.00701	1330370787.37991	"left"	"left"	TRUE	0.220971822738647	0.0843920707702637	174.407807506414	10.4236512365545	0.959583024524883	1	TRUE
"0304b"	308	8	"pro"	2	640	512	426	2766	35	"left"	">"	">"	TRUE	1330370787.38797	1330370787.91858	1330370790.44604	1330370790.67685	1330370791.07413	1330370791.24002	1330370791.57911	"left"	NA	NA	NA	NA	NA	NA	NA	0.676470588235294	TRUE
"0304b"	309	8	"anti"	2	640	512	426	2294	35	"right"	"<"	"<"	TRUE	1330370791.5879	1330370798.585	1330370800.62701	1330370800.85842	1330370801.25357	1330370801.41859	1330370801.95492	"left"	"right"	FALSE	0.270103931427002	0.0787229537963867	184.474008043963	10.8355706716717	0.997503604218129	1	TRUE
"0304b"	310	8	"pro"	2	640	512	426	3115	35	"right"	"<"	"<"	TRUE	1330370801.96266	1330370803.67093	1330370806.53538	1330370806.76678	1330370807.16214	1330370807.32912	1330370807.70009	"right"	"right"	TRUE	0.269473075866699	0.0891759395599365	181.326785983731	10.5004819279196	0.96665592302497	1	TRUE
"0304b"	311	8	"anti"	2	640	512	426	2938	35	"left"	"^"	">"	FALSE	1330370807.70588	1330370811.17658	1330370813.90445	1330370814.10252	1330370814.50097	1330370814.66684	1330370816.09774	"right"	"left"	FALSE	0.260774850845337	0.0830161571502686	190.357429715903	11.3375961951527	1.04371919214199	1	TRUE
"0304b"	312	8	"anti"	2	640	512	426	2781	35	"left"	"^"	"^"	TRUE	1330370816.10648	1330370819.79583	1330370822.33446	1330370822.56811	1330370822.9662	1330370823.13175	1330370823.63602	"right"	"left"	FALSE	0.278640985488892	0.09415602684021	178.422322275581	10.5019262451628	0.966788884333553	1	TRUE
"0304b"	313	8	"pro"	2	640	512	426	1755	35	"left"	"^"	"^"	TRUE	1330370823.64333	1330370824.03099	1330370825.54425	1330370825.7754	1330370826.17149	1330370826.339	1330370826.84304	"left"	NA	NA	NA	NA	NA	NA	NA	0.5	TRUE
"0304b"	314	8	"anti"	2	640	512	426	3478	35	"left"	">"	">"	TRUE	1330370826.84734	1330370834.49999	1330370837.41177	1330370837.64243	1330370838.0389	1330370838.2049	1330370838.93951	"right"	NA	NA	NA	NA	NA	NA	NA	0.455882352941176	TRUE
"0304b"	315	8	"anti"	2	640	512	426	2677	35	"left"	"<"	"<"	TRUE	1330370838.94852	1330370839.4338	1330370841.87104	1330370842.10238	1330370842.50202	1330370842.66702	1330370843.17332	"right"	"left"	FALSE	0.141374111175537	0.00882101058959961	11.8765264765309	0.16711609679497	0.0153844143448451	1	TRUE
"0304b"	316	8	"pro"	2	640	512	426	3430	35	"right"	"^"	"^"	TRUE	1330370843.18196	1330370847.18268	1330370850.27485	1330370850.50539	1330370850.90201	1330370851.0671	1330370851.47401	"right"	"right"	TRUE	0.26274299621582	0.0835089683532715	177.59062324501	10.4028889534142	0.957671685206281	1	TRUE
"0304b"	317	8	"pro"	2	640	512	426	2023	35	"left"	"<"	"<"	TRUE	1330370851.48253	1330370861.80809	1330370863.56413	1330370863.79591	1330370864.19105	1330370864.35506	1330370864.763	"left"	"left"	TRUE	0.110978126525879	0.0331220626831055	16.9848779908958	0.771938925488029	0.0710633416312519	0.432835820895522	TRUE
"0304b"	318	8	"anti"	2	640	512	426	3084	35	"left"	"^"	"^"	TRUE	1330370864.77008	1330370868.95619	1330370871.79225	1330370872.02311	1330370872.4208	1330370872.58573	1330370873.18805	"right"	NA	NA	NA	NA	NA	NA	NA	0.661764705882353	TRUE
"0304b"	319	8	"anti"	2	640	512	426	2148	35	"right"	">"	">"	TRUE	1330370873.19532	1330370873.58392	1330370875.49494	1330370875.7259	1330370876.12198	1330370876.44013	1330370877.014	"left"	"right"	FALSE	0.578181028366089	0.00189399719238281	159.088266563846	9.38658975910873	0.864112966427029	1	TRUE
"0304b"	320	8	"anti"	2	640	512	426	1859	35	"left"	">"	">"	TRUE	1330370877.02102	1330370877.5617	1330370879.18718	1330370879.41995	1330370879.81512	1330370879.98017	1330370903.66505	"right"	"left"	FALSE	0.257060050964355	0.0923888683319092	161.203362219294	9.77783941649354	0.900130722687046	1	TRUE
"0304b"	321	9	"pro"	2	640	512	426	3352	35	"left"	">"	">"	TRUE	1330370911.04017	1330370914.01543	1330370917.11793	1330370917.34893	1330370917.74583	1330370917.91165	1330370918.34995	"left"	"right"	FALSE	0.293098926544189	0.124989032745361	236.019831317836	5.15138318377641	0.474227287904613	1	TRUE
"0304b"	322	9	"pro"	2	640	512	426	1687	35	"left"	">"	">"	TRUE	1330370918.35588	1330370920.2698	1330370921.71585	1330370921.94665	1330370922.34342	1330370922.50836	1330370922.9143	"left"	"right"	FALSE	0.277687072753906	0.126498937606812	258.713885400599	3.6439626026394	0.335456796869204	1	TRUE
"0304b"	323	9	"pro"	2	640	512	426	1688	35	"left"	"^"	"^"	TRUE	1330370922.92138	1330370923.46909	1330370924.92477	1330370925.15433	1330370925.55036	1330370925.71694	1330370926.18709	"left"	"left"	TRUE	0.00737214088439941	0	18.2891151671095	0	0	1	TRUE
"0304b"	324	9	"pro"	2	640	512	426	2356	35	"right"	">"	">"	TRUE	1330370926.19166	1330370926.54029	1330370928.65716	1330370928.88922	1330370929.28833	1330370929.45512	1330370929.89363	"right"	"right"	TRUE	0.257050037384033	0.0838220119476318	166.553552403218	9.81584993405349	0.903629904171171	1	TRUE
"0304b"	325	9	"anti"	2	640	512	426	1561	35	"left"	"<"	"<"	TRUE	1330370929.90267	1330370932.82494	1330370934.14621	1330370934.37828	1330370934.77602	1330370934.94063	1330370935.41465	"right"	"left"	FALSE	0.239970922470093	0.0894908905029297	176.89796065629	10.4809295897681	0.964855969116867	1	TRUE
"0304b"	326	9	"anti"	2	640	512	426	3345	35	"left"	"<"	"<"	TRUE	1330370935.42142	1330370935.79588	1330370938.90508	1330370939.13675	1330370939.53511	1330370939.70112	1330370940.10584	"right"	"left"	FALSE	0.261903047561646	0.0822901725769043	177.582631419215	10.5407197660544	0.970360147729106	1	TRUE
"0304b"	327	9	"pro"	2	640	512	426	2853	35	"right"	"<"	"<"	TRUE	1330370940.11127	1330370942.87527	1330370945.49014	1330370945.72192	1330370946.1192	1330370946.28413	1330370946.72122	"right"	"right"	TRUE	0.272433042526245	0.0844240188598633	182.971362575472	10.9082179419014	1.00419138431634	1	TRUE
"0304b"	328	9	"pro"	2	640	512	426	1524	35	"right"	">"	">"	TRUE	1330370946.72657	1330370950.55666	1330370951.83976	1330370952.07061	1330370952.46796	1330370952.63311	1330370953.03734	"right"	"right"	TRUE	0.259300947189331	0.0902049541473389	170.955422593232	10.1478424509503	0.934192552158305	1	TRUE
"0304b"	329	9	"pro"	2	640	512	426	2524	35	"left"	">"	">"	TRUE	1330370953.04412	1330370958.49639	1330370960.76782	1330370960.99837	1330370961.39514	1330370961.56084	1330370961.99947	"left"	NA	NA	NA	NA	NA	NA	NA	0.485294117647059	TRUE
"0304b"	330	9	"anti"	2	640	512	426	1641	35	"left"	"<"	"<"	TRUE	1330370962.0081	1330370970.18254	1330370971.57505	1330370971.80536	1330370972.20412	1330370972.37109	1330370972.80908	"right"	"left"	FALSE	0.262253999710083	0.0905759334564209	161.381245777565	9.75455557409557	0.897987253052101	1	TRUE
"0304b"	331	9	"pro"	2	640	512	426	3208	35	"left"	">"	">"	TRUE	1330370972.81488	1330370973.23006	1330370976.20594	1330370976.43669	1330370976.83298	1330370976.99885	1330370977.43737	"left"	"left"	TRUE	0.29587984085083	0.0901451110839844	180.094430813581	10.7077969632738	0.985740981047347	1	TRUE
"0304b"	332	9	"pro"	2	640	512	426	2870	35	"right"	">"	">"	TRUE	1330370977.44727	1330370978.01782	1330370980.60177	1330370980.8351	1330370981.23259	1330370981.39747	1330370982.06853	"right"	"right"	TRUE	0.305160045623779	0.082082986831665	178.599384892239	10.6916040763324	0.984250292317037	1	TRUE
"0304b"	333	9	"anti"	2	640	512	426	3219	35	"left"	"^"	"^"	TRUE	1330370982.07758	1330370982.48379	1330370985.46619	1330370985.69836	1330370986.09384	1330370986.25852	1330370986.92744	"right"	"left"	FALSE	0.3143150806427	0.0899708271026611	171.954344588756	10.1677096268162	0.936021489473409	1	TRUE
"0304b"	334	9	"anti"	2	640	512	426	3104	35	"right"	">"	">"	TRUE	1330370986.93289	1330370987.35858	1330370990.225	1330370990.4557	1330370990.85236	1330370991.01796	1330370991.52422	"left"	NA	NA	NA	NA	NA	NA	NA	1	TRUE
"0304b"	335	9	"pro"	2	640	512	426	2962	35	"left"	">"	">"	TRUE	1330370991.53078	1330370992.42042	1330370995.1501	1330370995.382	1330370995.77807	1330370995.94287	1330370996.41245	"left"	NA	NA	NA	NA	NA	NA	NA	1	TRUE
"0304b"	336	9	"pro"	2	640	512	426	2156	35	"left"	"^"	"^"	TRUE	1330370996.42091	1330370996.82631	1330370998.74933	1330370998.98105	1330370999.37808	1330370999.54293	1330371000.04716	"left"	NA	NA	NA	NA	NA	NA	NA	1	TRUE
"0304b"	337	9	"pro"	2	640	512	426	2144	35	"right"	">"	">"	TRUE	1330371000.05573	1330371000.08959	1330371001.99423	1330371002.22479	1330371002.62124	1330371002.7868	1330371003.16053	"right"	"right"	TRUE	0.295129060745239	0.0923371315002441	190.422614880968	11.417814507956	1.05110394912159	1	TRUE
"0304b"	338	9	"pro"	2	640	512	426	2437	35	"right"	">"	">"	TRUE	1330371003.16792	1330371003.63247	1330371005.8316	1330371006.06151	1330371006.4584	1330371006.62316	1330371007.06172	"right"	"right"	TRUE	0.326658010482788	0.0916450023651123	164.760037613046	9.70651269385192	0.89356450988036	1	TRUE
"0304b"	339	9	"anti"	2	640	512	426	2860	35	"right"	"<"	"<"	TRUE	1330371007.06864	1330371008.42987	1330371011.05555	1330371011.28711	1330371011.68527	1330371011.85102	1330371012.58905	"left"	"right"	FALSE	0.380237817764282	0.0913991928100586	163.817754961209	9.79231767922419	0.901463566124116	1	TRUE
"0304b"	340	9	"anti"	2	640	512	426	2577	35	"right"	"<"	"<"	TRUE	1330371012.59677	1330371013.08111	1330371015.42293	1330371015.65387	1330371016.05099	1330371016.27554	1330371016.74696	"left"	"right"	FALSE	0.25572395324707	0.23059606552124	193.212596370376	11.8233907512816	1.08844058571981	1	TRUE
"0304b"	341	9	"anti"	2	640	512	426	3434	35	"right"	"^"	"^"	TRUE	1330371016.75696	1330371024.97381	1330371028.1724	1330371028.40439	1330371028.80065	1330371028.96528	1330371030.79105	"left"	"right"	FALSE	0.361315965652466	0.0923500061035156	180.590020167383	10.6709613936546	0.982349963206945	1	TRUE
"0304b"	342	9	"anti"	2	640	512	426	1813	35	"left"	">"	">"	TRUE	1330371030.8011	1330371045.11061	1330371046.65508	1330371046.91979	1330371047.31816	1330371047.48371	1330371048.12203	"right"	"left"	FALSE	0.288619995117188	0.0933151245117188	186.47398013954	11.1368583855912	1.02523962197371	1	TRUE
"0304b"	343	9	"pro"	2	640	512	426	2795	35	"left"	">"	">"	TRUE	1330371048.13145	1330371052.9788	1330371054.79089	1330371055.02181	1330371055.41777	1330371055.58416	1330371055.9905	"left"	"left"	TRUE	0.271359920501709	0.0826320648193359	183.168865037272	11.0676885626551	1.01887196956549	1	TRUE
